aX,aY,aZ,gX,gY,gZ
0.636,-0.076,0.787,4.639,8.484,-5.188
0.643,-0.092,0.787,-0.366,11.902,-3.540
0.639,-0.117,0.761,6.165,14.404,-3.906
0.632,-0.087,0.750,7.202,10.925,-5.432
0.644,-0.085,0.759,4.944,13.000,1.526
0.638,-0.121,0.727,6.714,16.541,1.099
0.649,-0.105,0.732,11.230,14.832,-3.052
0.677,-0.079,0.759,4.578,3.540,2.319
0.685,-0.073,0.759,-3.784,0.854,10.681
0.656,-0.059,0.715,-11.841,-1.099,10.071
0.663,-0.135,0.692,-21.851,-16.602,22.949
0.723,-0.260,0.703,-43.945,-80.139,37.720
0.798,-0.564,0.634,-108.887,-106.262,128.601
0.881,-0.803,0.790,-94.482,-139.465,186.951
0.789,-0.467,0.912,-39.734,-121.704,209.351
0.734,-0.077,1.165,-71.777,-81.909,221.863
0.566,0.124,1.216,-82.520,-48.584,224.121
0.298,0.382,1.158,-62.012,-10.864,207.947
0.203,0.530,1.092,-61.035,-4.822,191.040
0.090,0.641,0.997,-82.397,3.174,176.331
-0.005,0.779,0.959,-99.670,20.081,162.781
-0.060,0.869,0.888,-79.834,47.363,129.944
-0.080,0.876,0.837,-64.941,55.969,96.558
-0.128,0.941,0.814,-80.811,30.457,86.731
-0.126,1.051,0.820,-93.079,36.499,71.228
-0.145,1.051,0.796,-95.886,48.340,45.349
-0.177,1.122,0.745,-80.017,46.570,15.930
-0.139,1.151,0.663,-99.548,34.241,-2.014
-0.094,1.050,0.606,-105.408,37.781,-24.902
-0.052,0.945,0.469,-82.214,64.026,-54.687
-0.153,1.007,0.376,-110.901,65.552,-53.589
-0.099,0.913,0.337,-136.414,12.207,-50.720
-0.056,0.809,0.303,-119.873,3.723,-56.824
-0.080,0.867,0.249,-82.642,16.235,-72.144
-0.114,0.917,0.190,-81.604,9.094,-81.238
-0.077,0.910,0.198,-92.224,-21.118,-76.050
-0.087,1.001,0.187,-71.472,-23.743,-86.426
-0.040,0.992,0.141,-39.978,-20.935,-117.859
0.007,0.808,0.038,-7.141,4.639,-149.719
0.057,0.636,-0.015,-17.273,27.161,-153.625
0.228,0.563,0.095,-73.120,-35.278,-126.099
0.337,0.487,0.067,-56.274,-63.171,-128.418
0.286,0.475,0.009,-13.184,-50.415,-130.676
0.346,0.516,0.047,-34.668,-53.589,-126.648
0.541,0.515,0.125,-54.749,-77.881,-120.117
0.531,0.367,0.152,-48.889,-78.735,-117.065
0.469,0.305,0.144,-34.363,-87.097,-99.670
0.531,0.202,0.127,-10.254,-90.393,-112.915
0.525,0.073,0.200,-3.906,-103.210,-110.840
0.529,0.015,0.349,5.005,-109.680,-91.003
0.622,-0.116,0.307,15.747,-109.009,-95.398
0.529,-0.128,0.375,7.812,-121.033,-60.242
0.516,-0.038,0.580,13.184,-124.023,-35.706
0.696,-0.185,0.693,30.273,-126.038,-37.781
0.559,-0.280,0.789,55.176,-111.084,-32.715
0.578,-0.238,0.777,84.167,-111.694,-11.353
0.703,-0.427,0.795,112.122,-115.234,-13.550
0.413,-0.376,0.779,134.094,-111.267,6.470
0.642,-0.172,0.834,145.020,-117.126,30.212
0.703,-0.445,0.851,113.525,-102.295,26.245
0.460,-0.436,0.769,99.976,-75.867,60.364
0.491,-0.331,0.725,137.573,-94.238,44.983
0.592,-0.334,1.026,137.146,-101.990,28.198
0.507,-0.548,1.070,83.984,-89.172,56.152
0.535,-0.543,1.046,133.850,-74.768,79.041
0.552,-0.531,1.046,115.356,-104.248,114.990
0.580,-0.550,1.498,115.540,-65.674,74.524
0.581,-0.541,1.288,118.896,10.376,97.534
0.452,-0.592,1.031,64.819,-15.747,93.872
0.479,-0.508,1.127,59.570,-38.452,89.905
0.452,-0.492,1.156,65.857,-30.457,88.196
0.420,-0.492,1.100,54.443,-35.645,97.168
0.370,-0.460,1.205,35.034,-35.400,106.873
0.370,-0.313,1.294,29.236,-13.000,104.248
0.382,-0.254,1.245,10.010,33.813,106.750
0.318,-0.182,1.159,-19.714,72.815,98.511
0.449,-0.055,1.018,-30.884,61.279,78.796
0.451,-0.033,1.043,-40.405,56.213,74.768
0.430,-0.040,0.854,-55.908,91.919,72.876
0.473,-0.049,0.865,-67.627,81.543,46.570
0.515,0.055,0.932,-76.172,115.784,15.442
0.637,0.088,0.686,-67.749,102.478,-27.893
0.637,0.042,0.645,-86.853,49.316,-18.799
0.590,-0.055,0.610,-65.491,-9.827,2.502
0.475,-0.026,0.593,-50.903,-47.302,38.635
0.522,0.000,0.709,-28.809,-52.185,35.278
0.566,0.085,0.691,-38.147,-31.799,38.757
0.459,0.052,0.763,-50.537,-4.211,42.114
0.639,0.089,0.640,-8.728,-87.830,44.983
0.698,0.181,0.625,-34.180,-69.580,1.709
0.412,0.078,0.795,-82.886,-47.668,-36.743
0.546,-0.042,0.734,-114.868,-21.667,-14.893
0.578,0.019,0.535,-109.924,5.920,5.676
0.824,0.263,1.254,-51.086,-164.978,-25.940
0.540,0.296,0.944,4.395,-111.328,-10.559
0.576,0.167,1.185,-39.001,-75.317,-22.400
0.308,0.292,0.583,-57.495,-3.113,33.997
0.295,0.180,0.908,18.860,45.105,16.846
0.486,0.252,0.942,-9.338,2.991,11.230
0.200,0.300,0.798,5.249,-20.569,7.568
0.293,0.286,0.826,42.664,7.629,-9.521
0.457,0.212,0.933,38.269,29.175,-0.977
0.410,0.203,0.902,19.470,18.616,-2.258
0.502,0.175,0.785,26.733,30.396,-12.695
0.619,0.130,0.819,28.381,47.058,-6.653
0.589,0.136,0.855,1.160,17.273,4.395
0.542,0.190,0.853,-9.644,-6.775,2.930
0.454,0.193,0.860,13.062,0.061,7.019
0.467,0.177,0.894,13.977,16.846,-0.732
0.567,0.166,0.903,3.174,25.269,2.625
0.477,0.164,0.877,-3.174,1.526,1.709
0.505,0.181,0.842,-9.766,-12.390,-10.254
0.535,0.193,0.815,-8.179,-9.155,-11.108
0.530,0.203,0.802,-6.042,6.897,-1.831
0.514,0.193,0.818,-5.432,7.812,2.380
0.487,0.174,0.854,-9.216,5.615,-3.906
0.499,0.163,0.870,-9.155,-3.845,-7.629
0.528,0.181,0.875,-6.104,-1.099,-9.216
0.630,0.266,0.855,0.854,-4.761,-24.902
0.468,0.142,0.889,-4.700,-2.747,-36.621
0.518,0.177,0.843,-20.752,6.348,-43.335
0.496,0.091,0.828,-13.855,-1.587,-11.597
0.525,0.198,0.806,-20.142,2.319,7.019
0.526,0.178,0.845,2.197,-7.935,-2.014
0.540,0.169,0.853,0.427,-1.770,-3.235

0.516,0.207,0.816,6.042,2.380,0.732
0.530,0.206,0.808,6.958,2.075,0.732
0.548,0.206,0.838,3.357,-7.202,0.488
0.533,0.203,0.823,15.015,-4.761,4.761
0.525,0.193,0.813,16.052,6.531,8.118
0.562,0.185,0.782,19.409,5.920,8.667
0.538,0.188,0.834,21.667,-1.221,10.925
0.505,0.166,0.862,18.311,-2.380,8.362
0.535,0.179,0.791,4.761,-8.301,4.639
0.544,0.159,0.737,19.775,3.967,16.479
0.526,0.146,0.840,35.706,4.517,24.353
0.562,0.139,0.885,50.415,4.089,26.245
0.591,0.146,0.826,61.340,8.362,26.794
0.527,0.172,0.944,70.435,5.310,13.062
0.484,0.209,1.044,41.748,7.080,-39.978
0.487,0.076,0.864,-3.601,6.714,-101.685
0.533,-0.341,0.643,20.264,-59.998,-71.472
0.340,-0.023,0.979,70.374,-56.763,32.776
0.735,-0.046,0.820,-4.517,-18.188,22.461
0.516,-0.193,0.941,-29.907,-59.753,-13.000
0.553,-0.195,0.924,-36.987,-97.046,-18.311
0.776,0.308,1.091,-136.475,-43.213,109.131
0.663,-0.235,1.276,-200.806,-73.364,169.800
0.694,0.185,0.972,-105.896,-40.894,133.972
0.511,0.006,1.132,-96.619,-72.388,60.059
0.371,0.162,1.666,-80.078,-57.678,73.303
0.265,0.402,1.313,-64.941,0.610,119.324
0.168,0.467,0.835,-130.920,8.057,109.253
0.183,0.792,0.772,-179.016,26.855,89.172
0.155,0.900,0.803,-130.188,48.706,49.438
0.096,0.840,0.769,-115.601,74.280,42.847
-0.089,1.169,0.745,-106.506,96.924,53.589
-0.009,1.339,0.775,-37.354,101.318,-19.592
-0.065,1.226,0.832,-43.457,81.421,-87.646
-0.062,1.183,0.666,-95.093,77.332,-90.271
0.028,1.080,0.656,-109.436,87.402,-123.779
0.055,0.842,0.429,-81.848,112.488,-160.583
0.068,0.856,0.303,-84.717,113.342,-154.724
0.151,0.749,0.100,-104.614,81.909,-115.173
0.274,0.689,0.157,-114.319,46.875,-100.891
0.367,0.695,0.234,-97.290,39.978,-109.131
0.303,0.727,0.173,-101.501,36.011,-112.854
0.229,0.624,0.036,-116.760,1.770,-78.491
0.373,0.533,0.036,-108.398,-27.039,-75.439
0.388,0.525,0.083,-96.008,-20.081,-84.412
0.387,0.492,0.050,-73.914,-39.124,-98.511
0.379,0.367,0.043,-58.289,-73.547,-107.483
0.356,0.283,0.076,-50.110,-87.341,-99.609
0.363,0.199,0.114,-25.513,-83.740,-108.521
0.408,0.021,0.109,10.925,-71.533,-121.277
0.446,-0.116,0.096,14.465,-78.613,-94.666
0.465,-0.068,0.125,-16.113,-127.441,-45.776
0.591,-0.217,0.296,-20.203,-137.085,-38.513
0.572,-0.220,0.299,-9.827,-131.226,-30.334
0.510,-0.212,0.466,-30.823,-150.635,-7.019
0.709,-0.074,0.751,-20.325,-154.053,17.212
0.743,-0.075,0.791,-14.648,-142.334,12.390
0.600,-0.023,0.698,-5.005,-137.695,11.902
0.614,-0.106,0.800,12.573,-149.902,7.874
0.694,-0.071,1.074,36.438,-133.911,21.545
0.643,-0.210,0.967,45.471,-92.285,20.630
0.441,-0.247,0.953,14.465,-85.510,46.326
0.575,-0.108,1.156,40.833,-92.590,58.655
0.571,-0.131,1.167,56.274,-82.031,43.457
0.393,-0.037,1.159,34.607,-71.594,60.120
0.479,0.057,1.151,45.410,-69.458,79.529
0.450,0.062,1.194,40.588,-101.746,75.928
0.328,0.065,1.288,52.490,-89.294,50.537
0.340,0.049,1.263,45.715,-56.152,79.651
0.351,0.010,1.275,29.236,-43.701,68.176
0.252,-0.060,1.181,14.038,-42.114,82.458
0.223,-0.023,1.184,32.288,-27.283,71.350
0.232,0.090,1.268,25.452,8.484,72.327
0.180,0.065,1.249,3.906,-3.906,63.232
0.116,0.136,1.155,-5.432,20.264,92.529
0.197,0.337,1.266,14.832,22.400,78.064
0.182,0.335,1.222,0.549,34.180,49.316
0.156,0.247,1.097,-9.338,27.954,47.729
0.180,0.286,1.045,1.343,30.701,50.720
0.167,0.318,1.023,10.620,25.085,46.570
0.201,0.292,1.033,-4.761,19.958,34.973
0.184,0.239,1.013,-14.648,35.645,35.583
0.167,0.310,0.931,-13.306,31.921,33.020
0.197,0.363,0.969,-30.396,19.958,32.349
0.196,0.391,1.000,-19.714,29.236,26.917
0.184,0.320,0.925,-0.488,22.949,19.409
0.218,0.250,0.911,3.540,22.278,15.381
0.215,0.266,0.874,-5.493,26.123,13.733
0.263,0.178,0.870,-21.057,15.991,12.085
0.301,0.119,0.918,-13.062,6.226,23.804
0.305,0.206,1.005,-5.615,4.089,28.870
0.306,0.244,0.992,-9.094,16.724,25.269
0.316,0.247,0.931,-20.203,15.076,27.161
0.323,0.289,0.977,-15.442,18.188,32.166
0.306,0.341,0.973,-13.123,22.522,28.564
0.296,0.370,0.924,-15.991,23.926,20.935
0.281,0.374,0.874,-25.940,19.287,19.409
0.255,0.388,0.863,-24.414,20.874,19.470
0.250,0.424,0.857,-14.954,21.301,9.949
0.239,0.406,0.797,-11.047,20.447,0.977
0.247,0.361,0.765,-1.831,18.066,-3.174
0.248,0.376,0.739,2.930,9.094,-5.615
0.250,0.389,0.748,-5.859,0.977,-5.127
0.296,0.328,0.775,-3.906,0.244,-5.493
0.327,0.320,0.799,7.446,4.395,-8.484
0.250,0.360,0.768,12.573,-2.747,5.188
0.354,0.350,0.826,10.864,-10.254,25.818
0.381,0.402,0.902,8.789,-3.418,30.823
0.308,0.386,0.863,10.803,-14.160,26.794
0.377,0.352,0.884,13.184,-14.221,27.588
0.302,0.353,0.883,10.254,-28.809,10.864
0.299,0.337,0.884,7.080,-30.762,10.620
0.340,0.301,0.912,5.615,-27.405,8.423
0.292,0.307,0.950,2.930,-20.752,8.362
0.223,0.323,0.922,-12.329,-26.306,29.541
0.283,0.317,0.911,-7.141,-12.146,24.292
0.318,0.294,0.957,4.883,-11.841,-5.371
0.153,0.313,0.960,-2.441,0.549,-29.480
0.281,0.316,0.936,4.211,-1.648,-12.512
0.318,0.323,0.923,0.122,-12.817,17.151
0.294,0.310,0.925,-15.198,-3.723,-2.075
0.147,0.355,0.957,-20.874,5.554,-17.151
0.199,0.364,0.910,-10.010,-11.536,4.517
0.248,0.405,0.932,-10.010,-13.306,4.211
0.236,0.446,0.955,-6.836,-12.207,-5.432

0.248,0.365,0.903,1.892,-9.338,1.038
0.259,0.355,0.916,6.165,-9.521,0.732
0.251,0.357,0.896,7.874,-8.240,-0.366
0.238,0.360,0.879,4.578,-8.972,4.089
0.235,0.360,0.890,1.282,-10.620,7.202
0.236,0.390,0.923,4.517,-9.521,7.812
0.216,0.411,0.916,5.493,-4.822,4.089
0.205,0.394,0.900,1.343,-5.554,4.395
0.204,0.392,0.895,-0.366,-7.019,6.592
0.209,0.400,0.932,0.427,-5.493,1.526
0.181,0.383,0.907,-0.977,-2.197,-0.977
0.188,0.389,0.907,-1.770,-2.991,2.441
0.203,0.396,0.925,0.977,-5.676,0.427
0.201,0.396,0.924,-0.366,-2.258,-1.465
0.192,0.385,0.893,-3.052,0.061,-1.526
0.196,0.372,0.879,-4.028,-3.113,1.221
0.206,0.379,0.894,-2.625,-6.836,3.662
0.207,0.365,0.882,-5.615,-6.592,1.892
0.215,0.345,0.865,-8.911,-9.094,4.883
0.217,0.325,0.856,-12.817,-13.489,9.644
0.251,0.251,0.886,-20.813,-21.423,21.362
0.303,0.188,0.981,-23.926,-26.367,46.326
0.292,0.210,1.015,-16.602,-26.428,53.772
0.286,0.190,1.030,-28.259,-24.902,69.519
0.249,0.242,1.026,-40.100,-21.179,91.064
0.158,0.366,1.015,-38.147,-18.311,94.971
0.100,0.439,1.129,-65.247,-20.081,101.013
0.051,0.576,1.118,-83.984,1.587,94.971
-0.033,0.650,1.015,-89.600,16.663,90.271
-0.080,0.823,0.984,-85.266,11.780,85.388
-0.085,0.923,0.987,-87.891,15.259,77.820
-0.118,0.992,0.961,-95.093,37.720,65.002
-0.163,1.145,0.854,-79.407,61.340,39.551
-0.219,1.123,0.696,-70.862,69.031,2.319
-0.247,1.210,0.666,-87.280,69.885,-20.325
-0.157,1.117,0.759,-64.941,73.120,-37.415
-0.169,0.964,0.656,-70.801,91.675,-63.599
-0.225,1.092,0.598,-64.270,98.877,-88.074
-0.149,0.945,0.473,-42.480,70.984,-93.689
-0.105,0.881,0.486,-54.810,53.528,-89.539
-0.072,1.007,0.492,-48.645,70.007,-98.572
-0.088,0.936,0.360,-53.833,84.351,-126.648
-0.090,0.977,0.288,-67.810,75.195,-125.977
-0.029,0.922,0.238,-69.336,52.124,-133.179
0.068,0.735,0.170,-72.876,31.921,-135.742
0.119,0.741,0.089,-69.214,20.264,-122.437
0.194,0.716,0.106,-74.951,3.052,-118.530
0.264,0.537,0.076,-84.656,-4.822,-108.215
0.243,0.519,0.015,-90.393,-26.306,-84.595
0.330,0.528,0.100,-77.942,-49.133,-72.327
0.366,0.515,0.120,-53.833,-63.293,-67.261
0.370,0.449,0.095,-52.490,-78.125,-54.993
0.423,0.322,0.120,-47.363,-94.055,-49.927
0.441,0.225,0.168,-20.569,-102.417,-61.340
0.464,0.126,0.253,-12.146,-116.028,-50.476
0.481,0.063,0.343,-16.968,-125.000,-25.818
0.555,0.038,0.425,-7.812,-133.362,-15.137
0.563,0.106,0.553,1.831,-132.507,-4.150
0.609,0.186,0.693,13.733,-114.990,8.606
0.537,0.250,0.679,33.508,-100.403,9.460
0.530,0.199,0.664,38.330,-110.413,15.198
0.597,0.185,0.857,45.959,-113.220,20.081
0.578,0.284,0.979,63.354,-98.999,18.921
0.534,0.231,0.940,70.007,-91.309,14.099
0.497,0.130,0.991,62.988,-89.172,26.062
0.553,0.204,1.164,53.711,-78.857,39.246
0.509,0.210,1.058,58.289,-50.049,39.001
0.423,0.247,0.974,46.936,-47.180,49.744
0.366,0.329,0.976,58.533,-47.485,48.706
0.482,0.284,1.119,58.105,-49.805,44.800
0.402,0.307,1.190,34.851,-22.034,51.941
0.374,0.248,1.099,41.626,-15.930,59.326
0.316,0.227,1.059,62.439,-28.992,37.109
0.289,0.245,1.105,47.485,-23.560,58.411
0.329,0.349,1.285,43.274,-3.235,59.387
0.322,0.288,1.182,40.771,10.498,45.898
0.242,0.150,1.063,24.658,13.794,50.659
0.208,0.165,1.027,28.442,22.339,75.134
0.254,0.286,1.084,35.339,20.874,63.782
0.223,0.240,1.093,4.822,35.400,75.073
0.164,0.250,1.059,2.686,54.138,81.604
0.146,0.419,1.042,24.414,64.026,82.092
0.218,0.424,0.979,21.423,60.303,69.092
0.181,0.333,0.903,-2.625,69.397,75.256
0.155,0.591,0.859,1.953,66.528,68.298
0.207,0.597,0.837,16.968,33.691,31.921
0.180,0.567,0.784,5.188,9.705,30.334
0.209,0.574,0.840,-1.404,-2.258,20.691
0.231,0.518,0.872,-1.831,-16.113,13.611
0.239,0.426,0.943,-1.343,-11.841,0.000
0.238,0.374,0.983,-0.244,-2.930,0.549
0.232,0.348,0.932,2.747,-6.165,-3.540
0.262,0.295,0.950,-0.305,-9.033,-5.798
0.269,0.259,0.911,-1.404,-5.920,-0.854
0.286,0.234,0.904,2.502,-7.996,0.427
0.265,0.244,0.911,5.127,-7.935,6.592
0.304,0.313,0.992,1.831,-4.272,5.249
0.287,0.243,0.948,1.892,-3.357,-4.028
0.281,0.239,0.908,4.150,-2.319,-3.784
0.279,0.240,0.887,10.803,-4.456,-1.282
0.279,0.254,0.899,10.254,-4.639,-2.136
0.309,0.286,0.976,3.662,4.089,-2.563
0.285,0.278,0.944,1.343,3.052,-0.610
0.282,0.269,0.919,7.202,-0.305,-0.793
0.286,0.292,0.939,3.296,-5.981,1.160
0.298,0.286,0.983,-0.854,-1.099,-1.038
0.271,0.259,0.968,-1.038,0.366,-0.427
0.271,0.265,0.965,-0.427,0.183,2.808
0.278,0.274,0.947,0.122,0.244,1.770
0.269,0.269,0.933,0.244,1.587,-0.427
0.272,0.258,0.938,-2.563,3.784,1.282
0.255,0.256,0.907,0.183,1.465,1.831
0.262,0.264,0.898,2.747,-1.465,2.258
0.254,0.274,0.925,1.282,-4.028,2.380
0.275,0.269,0.963,2.930,-2.625,1.770
0.273,0.294,0.954,3.235,2.686,0.732
0.254,0.269,0.921,-0.793,0.977,-0.732
0.267,0.268,0.925,-2.258,-1.038,3.479
0.271,0.272,0.920,-0.366,-2.014,-0.244
0.254,0.252,0.904,0.488,-1.953,-2.380
0.255,0.252,0.922,0.610,-2.869,1.404
0.283,0.276,0.979,0.061,-4.883,0.977
0.272,0.277,0.964,-0.549,1.099,-0.732
0.254,0.258,0.913,0.610,2.686,-3.235
0.265,0.266,0.919,1.770,-1.587,-1.770

0.260,0.205,0.916,-0.061,-5.127,-3.235
0.267,0.199,0.937,-1.404,-4.639,-0.854
0.260,0.202,0.931,1.038,-5.127,1.404
0.266,0.223,0.935,1.465,-6.042,2.563
0.265,0.238,0.961,-0.305,-3.296,2.869
0.261,0.250,0.962,2.502,-1.526,0.793
0.258,0.259,0.953,0.610,-1.953,1.709
0.263,0.279,0.966,0.549,-0.183,0.305
0.250,0.261,0.945,-1.526,-0.305,-0.610
0.252,0.259,0.931,-0.366,-1.221,-0.427
0.256,0.256,0.926,-0.854,-2.502,-0.610
0.249,0.217,0.898,-1.770,-3.479,-1.160
0.258,0.194,0.870,-1.709,-6.958,2.686
0.287,0.149,0.859,-2.869,-13.306,6.165
0.386,-0.010,0.839,-17.273,-19.470,10.071
0.342,-0.181,0.783,-36.438,-22.766,26.245
0.394,-0.029,0.979,-26.794,-19.592,58.655
0.402,0.300,1.119,-6.348,-8.789,69.763
0.402,0.334,1.205,-47.302,-11.230,66.528
0.308,0.239,1.219,-66.895,3.418,79.285
0.192,0.440,1.283,-46.509,6.226,92.468
0.138,0.557,1.318,-48.828,-7.568,112.305
0.139,0.500,1.211,-32.104,10.315,135.925
0.026,0.408,0.976,-6.226,16.785,116.455
0.018,0.536,0.864,-41.321,22.339,120.056
0.012,0.633,0.898,-69.641,9.277,96.497
-0.029,0.623,0.898,-95.703,24.780,79.895
-0.100,0.687,0.850,-97.839,32.593,68.848
-0.151,0.749,0.792,-110.657,36.438,57.373
-0.105,0.796,0.864,-122.437,44.617,39.185
-0.092,0.871,0.886,-102.722,68.787,22.583
-0.108,0.896,0.719,-81.543,67.810,23.682
-0.099,0.971,0.658,-78.308,71.594,1.831
-0.048,1.082,0.691,-74.219,80.017,-32.410
-0.083,1.222,0.771,-43.274,78.857,-56.580
-0.108,1.090,0.615,-77.454,57.190,-33.813
-0.086,1.096,0.656,-98.511,54.565,-38.025
-0.043,0.978,0.569,-84.900,62.805,-71.289
-0.049,0.998,0.479,-86.304,75.806,-94.666
-0.006,0.922,0.345,-92.346,68.176,-87.952
0.040,0.881,0.234,-102.295,56.458,-77.332
0.075,0.834,0.167,-100.342,47.668,-81.238
0.104,0.813,0.077,-89.355,36.072,-81.055
0.110,0.843,-0.002,-88.989,22.156,-86.914
0.143,0.810,-0.054,-96.558,4.944,-92.712
0.221,0.698,-0.011,-93.323,-21.484,-99.487
0.267,0.716,-0.011,-83.618,-32.715,-99.609
0.305,0.611,-0.068,-81.299,-47.485,-93.140
0.327,0.621,-0.084,-80.383,-56.763,-84.534
0.376,0.570,-0.042,-72.327,-69.031,-94.666
0.384,0.529,-0.021,-60.852,-77.881,-79.895
0.382,0.508,-0.012,-61.584,-94.482,-68.726
0.453,0.445,0.039,-50.598,-104.065,-72.266
0.476,0.370,0.045,-39.551,-112.427,-70.923
0.463,0.336,0.096,-41.687,-125.549,-47.302
0.550,0.316,0.158,-34.973,-139.587,-43.518
0.594,0.235,0.190,-20.386,-136.841,-48.523
0.476,0.183,0.241,-5.859,-144.104,-31.189
0.482,0.139,0.401,1.221,-167.419,-27.283
0.555,0.120,0.612,13.062,-164.124,-21.606
0.556,0.121,0.729,15.198,-147.949,-12.756
0.565,0.083,0.734,22.522,-131.104,-0.183
0.545,0.075,0.740,41.504,-123.474,1.587
0.472,0.126,0.776,54.749,-114.197,3.845
0.495,0.097,0.815,38.208,-107.422,18.188
0.493,0.068,0.953,46.814,-105.957,27.405
0.493,0.097,1.040,69.031,-89.416,29.785
0.455,0.121,1.055,67.261,-79.468,35.889
0.422,0.123,1.096,66.833,-69.580,40.649
0.509,0.136,1.232,61.096,-54.138,39.734
0.362,0.161,1.167,62.073,-20.874,38.269
0.422,0.099,1.058,79.102,-21.667,32.471
0.432,0.001,1.097,56.580,-30.762,43.518
0.366,0.084,1.280,33.752,-20.386,71.777
0.404,0.253,1.267,90.271,-20.447,48.340
0.386,0.124,1.168,70.068,-11.108,41.504
0.345,0.016,1.242,25.330,4.456,57.617
0.369,0.108,1.161,51.025,19.714,58.594
0.317,0.214,1.097,34.851,18.311,66.406
0.314,0.171,1.128,14.526,17.334,61.584
0.296,0.135,1.027,14.587,33.142,70.862
0.294,0.283,1.003,11.719,37.109,86.670
0.348,0.338,1.069,10.254,38.757,74.402
0.330,0.251,1.067,-4.333,56.213,76.477
0.315,0.407,1.046,-1.709,75.073,74.402
0.333,0.305,0.912,-3.845,69.397,61.035
0.312,0.241,0.847,-26.855,69.763,71.472
0.343,0.444,0.854,-23.193,62.744,79.651
0.335,0.522,0.780,-10.742,27.527,61.279
0.388,0.441,0.794,-7.263,12.634,38.757
0.353,0.383,0.744,-15.930,4.578,36.377
0.360,0.435,0.754,-17.029,-2.136,58.105
0.366,0.533,0.808,-12.756,-9.094,52.795
0.378,0.470,0.832,-6.592,-8.362,23.621
0.374,0.404,0.890,-3.540,-6.775,15.869
0.385,0.446,0.957,-9.094,3.113,26.428
0.387,0.458,0.903,-7.141,7.935,19.043
0.398,0.448,0.870,2.869,3.296,3.052
0.405,0.416,0.843,15.198,-2.136,-9.277
0.408,0.404,0.843,18.616,-4.150,-9.827
0.411,0.398,0.883,9.827,-0.488,-9.033
0.425,0.346,0.877,12.573,0.916,-12.146
0.412,0.304,0.851,19.897,2.014,-17.395
0.425,0.300,0.856,10.986,4.578,-14.282
0.425,0.274,0.844,10.254,-1.709,-10.925
0.432,0.288,0.856,9.644,-3.662,-9.155
0.414,0.313,0.853,6.470,-3.052,-2.197
0.425,0.323,0.865,2.686,-2.197,1.892
0.422,0.317,0.871,2.441,-1.709,0.305
0.417,0.314,0.896,3.357,1.831,-1.160
0.402,0.326,0.882,4.822,0.977,0.366
0.401,0.317,0.863,1.343,-0.793,2.014
0.407,0.319,0.877,-0.244,-0.244,3.967
0.404,0.318,0.876,0.305,-0.732,1.831
0.392,0.318,0.858,1.160,-0.488,1.343
0.391,0.310,0.852,-0.122,-2.563,2.625
0.404,0.324,0.878,-0.061,-2.319,3.113
0.397,0.324,0.879,-0.916,-1.770,1.465
0.407,0.311,0.876,-0.488,-2.136,0.000
0.397,0.299,0.848,1.587,-2.686,-0.488
0.394,0.291,0.856,0.732,-6.165,1.526
0.409,0.311,0.883,-1.709,-5.615,3.174
0.390,0.307,0.847,2.319,-2.319,-0.122
0.386,0.308,0.853,1.953,-4.883,0.000
0.394,0.299,0.869,-1.526,-6.470,3.662

0.352,0.306,0.888,-1.770,-2.258,2.441
0.346,0.314,0.883,1.038,-1.831,1.526
0.339,0.320,0.883,0.610,-3.113,2.625
0.334,0.328,0.881,0.488,-3.906,4.456
0.335,0.326,0.875,1.038,-5.615,2.808
0.338,0.317,0.878,0.977,-5.554,2.441
0.333,0.311,0.875,2.136,-7.507,3.174
0.328,0.302,0.860,2.686,-10.437,5.066
0.336,0.277,0.872,3.845,-16.296,10.864
0.380,0.231,0.901,3.296,-15.442,12.573
0.457,0.138,0.902,-0.122,-17.151,19.043
0.535,0.061,0.995,-14.221,-19.104,34.241
0.566,0.075,1.090,-35.767,-16.357,60.242
0.567,0.173,1.059,-30.884,-7.019,78.369
0.506,0.240,0.960,-26.855,-3.479,84.595
0.363,0.341,1.007,-39.612,-3.784,102.417
0.316,0.447,1.133,-69.519,-4.761,117.065
0.231,0.524,1.161,-75.439,2.075,118.652
0.177,0.716,1.083,-68.726,13.062,115.662
0.116,0.892,1.051,-68.787,24.536,99.609
0.037,0.947,0.969,-83.679,28.625,85.022
-0.007,0.884,0.836,-96.741,36.194,72.327
-0.037,0.975,0.767,-95.825,49.988,57.190
-0.105,1.125,0.767,-94.055,61.096,27.466
-0.058,1.071,0.729,-91.125,58.105,-1.465
-0.015,1.007,0.732,-100.525,54.932,-14.526
-0.037,1.027,0.673,-75.928,60.303,-38.147
-0.065,1.024,0.563,-69.580,54.138,-60.852
0.016,0.923,0.553,-88.013,37.903,-56.396
0.038,0.791,0.515,-94.421,55.542,-65.491
-0.002,0.796,0.397,-88.013,64.758,-79.651
-0.018,0.962,0.364,-96.741,59.204,-87.158
0.073,0.915,0.351,-90.576,57.495,-90.454
0.092,0.823,0.225,-84.229,51.270,-95.703
0.118,0.766,0.134,-76.355,43.762,-97.839
0.199,0.756,0.112,-85.022,35.645,-92.346
0.247,0.786,0.060,-88.989,29.175,-90.820
0.255,0.747,-0.085,-77.332,7.202,-83.618
0.303,0.735,-0.103,-82.825,-17.761,-74.829
0.347,0.675,-0.146,-67.078,-31.311,-78.247
0.352,0.618,-0.194,-63.904,-48.706,-73.853
0.367,0.571,-0.184,-59.082,-67.078,-71.533
0.426,0.517,-0.091,-57.190,-82.642,-74.585
0.473,0.463,-0.036,-58.533,-88.196,-63.965
0.443,0.523,0.008,-49.683,-100.464,-55.237
0.445,0.385,0.017,-40.710,-119.202,-55.725
0.413,0.250,0.050,-29.419,-144.653,-54.382
0.431,0.298,0.240,-30.273,-170.105,-39.063
0.573,0.217,0.396,-20.203,-173.279,-33.142
0.588,0.226,0.493,-13.000,-155.701,-25.635
0.528,0.217,0.522,-9.888,-140.320,-9.399
0.584,0.227,0.617,10.681,-143.005,-14.282
0.682,0.235,0.881,16.052,-126.160,-5.981
0.652,0.258,0.859,27.527,-79.102,-4.089
0.587,0.215,0.757,45.532,-60.669,-6.165
0.595,0.159,0.723,34.363,-62.073,-2.136
0.596,0.197,0.763,23.010,-63.477,11.414
0.653,0.178,0.818,32.166,-57.068,18.250
0.619,0.156,0.808,33.386,-45.593,31.250
0.560,0.193,0.839,41.748,-43.823,31.860
0.584,0.232,0.861,45.349,-41.199,35.156
0.556,0.233,0.903,36.011,-31.738,41.931
0.546,0.290,0.919,46.143,-27.222,39.917
0.513,0.239,0.886,48.035,-20.935,40.649
0.475,0.248,0.882,41.138,-24.353,46.631
0.492,0.322,0.964,54.504,-24.536,45.471
0.484,0.258,0.952,46.814,-23.865,44.861
0.415,0.277,0.998,35.034,-18.616,56.335
0.497,0.366,1.055,56.946,-35.095,76.477
0.437,0.224,1.023,63.110,-26.306,34.363
0.352,0.238,1.079,41.260,-2.502,62.317
0.424,0.413,1.161,70.190,-0.183,58.716
0.414,0.286,1.128,57.373,1.587,42.053
0.320,0.194,1.048,30.029,8.789,57.312
0.325,0.245,1.013,45.898,10.010,60.974
0.370,0.354,1.090,39.063,14.587,68.542
0.346,0.323,1.033,46.936,21.057,44.250
0.329,0.211,0.952,27.527,24.658,55.481
0.320,0.287,0.986,16.296,26.489,67.688
0.336,0.388,1.018,28.076,28.503,60.425
0.296,0.390,0.976,20.813,22.583,49.377
0.290,0.441,0.978,14.343,24.048,44.312
0.264,0.399,0.912,13.184,25.085,36.682
0.241,0.409,0.882,2.075,28.015,39.001
0.250,0.458,0.877,2.136,25.085,33.203
0.279,0.422,0.886,2.441,20.447,33.813
0.297,0.309,0.843,1.099,18.921,37.842
0.310,0.315,0.848,-5.798,24.780,57.495
0.313,0.418,0.808,-12.634,10.193,58.777
0.332,0.449,0.874,-0.793,0.427,42.969
0.369,0.385,0.905,-7.019,-3.723,44.495
0.339,0.380,0.945,-10.132,11.658,41.748
0.324,0.417,0.918,-12.878,-0.732,37.720
0.359,0.359,0.882,-7.751,-11.536,31.006
0.344,0.335,0.873,-3.906,-8.850,22.034
0.327,0.376,0.883,-6.104,-4.883,17.395
0.301,0.401,0.905,-11.353,-4.639,22.583
0.301,0.383,0.882,-4.150,-16.479,27.161
0.301,0.366,0.906,0.061,-14.343,21.667
0.279,0.379,0.889,-5.066,-5.066,22.034
0.291,0.362,0.884,-2.502,-8.545,25.635
0.284,0.407,0.906,0.793,-1.770,21.545
0.267,0.417,0.905,2.991,-0.305,14.465
0.268,0.415,0.914,1.160,3.601,15.259
0.269,0.409,0.914,2.808,5.737,13.672
0.268,0.408,0.911,5.798,8.972,7.385
0.269,0.383,0.873,1.465,10.132,7.996
0.287,0.387,0.872,-3.601,4.944,8.118
0.262,0.411,0.878,-5.676,9.766,2.502
0.269,0.412,0.858,-4.272,8.911,4.333
0.276,0.423,0.854,-5.798,5.066,2.197
0.268,0.412,0.839,-6.042,5.310,-4.578
0.271,0.440,0.873,-5.676,5.310,-7.202
0.292,0.432,0.876,-1.343,9.216,-15.320
0.327,0.418,0.883,0.061,13.550,-36.011
0.305,0.425,0.944,29.541,22.278,-48.828
0.311,0.354,0.835,55.176,2.197,-32.166
0.302,0.312,0.819,20.630,-16.418,-11.108
0.344,0.334,0.887,-9.094,-14.404,-12.390
0.318,0.352,0.940,8.850,-5.554,-17.700
0.327,0.316,0.896,20.569,-9.155,-13.245
0.321,0.321,0.893,16.663,-4.028,-14.587
0.296,0.305,0.891,12.756,-5.188,-23.132
0.320,0.323,0.893,9.583,1.831,-25.269
0.320,0.289,0.867,13.550,-0.916,-23.682

0.283,0.233,0.918,-1.892,-8.057,8.362
0.282,0.243,0.920,-0.977,-11.658,10.254
0.284,0.246,0.916,0.549,-13.000,13.184
0.278,0.240,0.907,4.089,-13.733,15.320
0.274,0.225,0.895,5.615,-15.930,18.677
0.289,0.205,0.930,-6.104,-24.109,35.156
0.309,0.210,0.995,-20.386,-22.522,46.509
0.385,0.165,0.982,-9.888,-14.709,45.410
0.429,0.128,0.995,-16.785,-19.165,57.861
0.468,0.103,1.042,-31.860,-17.639,76.660
0.431,0.195,1.102,-41.016,-16.113,89.844
0.384,0.295,1.125,-41.138,-11.169,82.886
0.297,0.297,1.059,-54.199,-6.104,94.910
0.213,0.414,1.066,-68.237,-7.629,102.173
0.145,0.481,1.101,-86.365,-9.094,98.511
0.084,0.602,1.112,-85.022,5.554,84.839
-0.015,0.719,1.040,-73.853,19.287,67.139
-0.063,0.836,0.948,-79.895,30.945,55.420
-0.068,0.778,0.881,-106.384,39.124,50.354
-0.162,0.873,0.847,-104.065,49.805,52.795
-0.224,1.200,0.914,-73.120,59.937,32.776
-0.160,1.146,0.983,-95.520,60.852,-6.104
-0.156,1.131,0.913,-113.220,86.609,-24.109
-0.145,1.120,0.758,-88.074,86.609,-46.753
-0.080,0.938,0.678,-72.449,78.186,-77.454
-0.061,0.893,0.693,-87.952,77.881,-74.646
-0.091,0.912,0.595,-104.370,90.210,-71.655
-0.062,0.850,0.432,-118.958,82.825,-87.097
-0.015,0.802,0.353,-108.704,74.280,-91.064
0.028,0.745,0.359,-105.469,64.819,-99.426
0.048,0.645,0.294,-94.788,52.979,-112.183
0.189,0.601,0.275,-99.365,33.203,-94.360
0.252,0.699,0.187,-116.638,22.827,-75.256
0.333,0.731,0.046,-119.812,15.686,-66.833
0.309,0.726,-0.163,-87.585,4.089,-74.097
0.329,0.654,-0.230,-77.942,-18.616,-74.646
0.336,0.647,-0.234,-81.970,-50.964,-69.763
0.337,0.539,-0.141,-73.242,-70.374,-75.806
0.263,0.386,-0.097,-45.898,-78.796,-82.153
0.292,0.270,-0.126,-45.959,-82.214,-74.402
0.395,0.312,-0.081,-54.260,-89.539,-42.908
0.445,0.350,0.008,-52.734,-107.727,-25.635
0.426,0.290,0.055,-35.706,-128.113,-19.714
0.539,0.274,0.066,-27.100,-162.781,-8.362
0.602,0.376,0.265,-6.287,-170.471,-16.174
0.663,0.250,0.410,12.756,-154.968,-22.461
0.686,0.134,0.487,14.404,-147.278,-7.690
0.632,0.236,0.592,18.738,-151.123,10.010
0.683,0.268,0.726,18.677,-146.973,5.615
0.714,0.262,0.776,19.958,-126.526,13.916
0.589,0.286,0.768,50.720,-106.506,18.250
0.586,0.221,0.664,67.017,-104.126,14.404
0.579,0.174,0.742,51.331,-103.027,19.836
0.546,0.221,0.961,42.236,-81.116,41.016
0.515,0.282,1.022,65.796,-63.110,47.729
0.442,0.295,1.063,75.562,-53.955,46.143
0.447,0.303,1.069,91.003,-35.950,45.166
0.514,0.291,1.196,79.895,-18.738,47.729
0.530,0.279,1.155,75.928,29.175,50.781
0.479,0.173,0.959,77.759,31.555,31.128
0.437,0.186,0.986,45.471,-8.667,81.238
0.401,0.319,1.068,67.383,-1.587,82.520
0.432,0.385,1.026,63.416,9.888,78.491
0.412,0.342,1.091,19.226,8.179,82.031
0.358,0.296,1.041,36.926,33.752,98.877
0.292,0.399,0.942,54.687,79.102,122.437
0.340,0.451,0.929,28.137,62.134,100.464
0.370,0.357,1.008,43.274,68.237,90.515
0.266,0.575,0.895,75.562,102.051,84.717
0.370,0.534,0.877,60.547,58.411,67.993
0.374,0.559,0.957,36.499,25.879,56.152
0.304,0.520,0.926,9.888,12.573,64.819
0.293,0.579,0.917,-7.996,17.029,75.562
0.333,0.460,0.864,4.028,35.095,64.453
0.245,0.522,0.901,-6.897,13.489,45.959
0.284,0.512,0.895,9.888,-4.150,54.016
0.278,0.546,0.904,-1.282,-5.920,26.733
0.439,0.349,0.904,-34.912,19.043,39.429
0.350,0.428,0.831,-35.217,-10.742,88.806
0.308,0.461,0.835,-5.066,-11.597,53.894
0.329,0.469,0.858,23.743,-6.042,13.184
0.397,0.492,0.919,13.794,-1.953,11.414
0.364,0.446,0.869,-17.761,-4.822,26.123
0.355,0.452,0.833,-13.794,-9.094,25.757
0.301,0.460,0.870,5.066,-13.245,13.977
0.312,0.453,0.853,21.667,-9.216,4.822
0.340,0.465,0.879,26.489,-0.549,-6.226
0.284,0.456,0.882,25.208,6.531,-7.751
0.293,0.432,0.868,33.569,-5.188,10.498
0.297,0.502,0.945,45.776,14.404,-26.611
0.343,0.369,0.819,68.909,13.428,-63.477
0.243,0.316,0.856,50.537,-33.630,-47.607
0.343,0.323,0.920,38.391,-14.709,-23.437
0.325,0.291,0.945,35.522,30.640,-29.785
0.374,0.241,0.909,51.331,30.640,-50.537
0.364,0.150,0.863,51.514,26.489,-48.279
0.382,0.148,0.847,37.354,-5.493,-21.729
0.356,0.178,0.963,7.812,-44.739,7.812
0.357,0.156,0.910,-7.629,-31.067,17.334
0.342,0.185,0.927,-4.944,-25.696,15.259
0.342,0.195,0.954,-1.038,-10.681,6.042
0.322,0.208,0.953,1.343,-1.831,-4.272
0.317,0.197,0.931,-5.066,-1.648,-8.972
0.322,0.197,0.939,-5.798,0.183,-14.648
0.333,0.201,0.952,-4.395,2.014,-12.512
0.332,0.181,0.941,-9.949,-0.183,-8.850
0.323,0.179,0.918,-14.038,-11.475,-10.254
0.317,0.194,0.922,-4.517,-11.230,-20.020
0.324,0.182,0.941,7.507,-16.174,-19.165
0.319,0.184,0.934,12.085,-13.184,-17.822
0.302,0.185,0.957,8.423,-11.902,-19.714
0.299,0.170,0.969,5.859,-2.075,-17.639
0.307,0.175,0.954,7.202,4.456,-15.564
0.313,0.152,0.928,4.822,1.221,-8.362
0.308,0.140,0.924,1.282,1.709,-4.272
0.313,0.145,0.941,2.686,3.357,-8.728
0.324,0.155,0.962,1.648,6.470,-10.437
0.315,0.150,0.957,0.427,2.625,-7.629
0.322,0.143,0.948,4.272,-1.526,-5.859
0.327,0.149,0.956,4.272,1.953,-10.071
0.324,0.142,0.946,5.920,5.554,-12.268
0.325,0.138,0.942,5.798,2.136,-11.536
0.330,0.141,0.949,2.258,3.052,-6.226
0.330,0.128,0.946,-0.305,2.380,-3.052
0.333,0.119,0.948,1.648,2.197,-4.944

0.409,0.594,1.079,-72.083,49.622,109.619
0.335,0.896,1.187,-83.435,59.143,95.032
0.335,0.859,1.183,-117.798,87.585,69.397
0.311,0.766,1.000,-124.268,111.084,51.331
0.259,0.946,0.850,-108.582,132.202,21.545
0.260,0.891,0.752,-123.108,129.578,-2.869
0.264,0.984,0.641,-107.300,119.507,-16.724
0.269,1.010,0.654,-113.342,109.253,-42.114
0.163,0.965,0.501,-128.662,112.427,-61.096
0.170,0.927,0.384,-149.902,113.159,-74.646
0.143,0.838,0.290,-159.180,113.098,-89.111
0.168,0.737,0.203,-156.250,91.797,-92.773
0.111,0.538,0.071,-148.010,67.505,-98.755
0.103,0.438,-0.021,-139.221,32.654,-95.032
0.152,0.352,-0.095,-122.437,-1.953,-86.731
0.228,0.237,-0.129,-103.455,-34.668,-78.064
0.327,0.122,-0.155,-83.496,-70.557,-56.824
0.441,0.070,-0.045,-71.655,-87.769,-27.222
0.505,0.127,-0.001,-52.063,-95.337,-22.644
0.577,0.126,0.003,-37.292,-105.469,-33.936
0.590,0.049,0.009,-24.170,-117.798,-27.039
0.667,-0.021,0.069,-19.226,-134.888,-14.465
0.759,-0.160,0.161,-8.972,-141.724,2.258
0.717,-0.134,0.225,9.460,-142.578,31.921
0.763,0.060,0.253,15.686,-146.790,42.053
0.818,0.082,0.429,17.029,-148.071,47.058
0.732,0.112,0.524,14.587,-128.967,61.768
0.787,0.160,0.655,18.616,-117.676,75.623
0.729,0.247,0.706,34.424,-113.159,75.745
0.702,0.278,0.798,43.518,-112.854,73.425
0.691,0.320,0.935,49.194,-98.755,91.858
0.780,0.429,1.078,44.495,-117.554,142.029
0.710,0.416,1.140,42.542,-88.806,90.027
0.623,0.521,1.090,65.369,-47.363,97.168
0.628,0.443,1.123,33.264,-46.204,104.553
0.540,0.171,1.056,7.812,-28.564,117.676
0.341,0.534,1.077,41.016,-12.573,136.414
0.349,0.704,1.112,55.054,-10.132,123.535
0.239,0.617,1.083,-0.183,-1.099,137.634
0.142,0.784,1.123,-12.207,14.221,150.146
0.125,0.881,1.104,-4.150,21.484,123.169
0.075,0.798,1.075,-26.184,31.799,114.441
-0.001,0.830,1.091,-34.668,51.758,103.271
-0.023,0.904,1.064,-42.908,74.280,85.327
-0.067,0.992,0.945,-58.899,85.937,63.293
-0.077,1.037,0.893,-58.411,89.966,46.570
-0.107,1.122,0.789,-57.068,96.130,37.292
-0.118,1.192,0.749,-56.458,105.103,6.409
-0.130,1.140,0.731,-63.354,119.812,-2.747
-0.062,1.191,0.751,-58.044,124.817,-30.334
-0.038,1.051,0.661,-69.336,137.024,-56.458
-0.015,1.006,0.550,-67.139,134.155,-68.359
0.029,1.118,0.515,-57.495,122.131,-83.740
0.071,1.014,0.499,-63.354,108.276,-98.389
0.075,0.927,0.387,-87.341,86.853,-95.520
0.132,0.955,0.366,-76.843,81.482,-115.662
0.121,0.825,0.244,-89.294,73.914,-124.268
0.148,0.752,0.181,-107.849,40.039,-101.807
0.189,0.665,0.161,-100.037,11.658,-106.201
0.287,0.526,0.214,-84.045,6.470,-112.549
0.312,0.366,0.128,-75.989,10.864,-108.398
0.314,0.328,0.024,-69.763,-4.822,-93.689
0.388,0.230,-0.021,-66.467,-40.222,-89.661
0.472,0.158,0.022,-59.204,-61.707,-74.829
0.541,0.120,0.033,-46.509,-81.726,-67.444
0.575,-0.021,0.088,-34.485,-94.299,-60.242
0.580,-0.043,0.086,-19.653,-97.412,-48.340
0.667,-0.056,0.087,-12.573,-107.544,-40.833
0.696,-0.104,0.173,3.296,-126.709,-31.738
0.665,-0.037,0.252,14.465,-120.972,-12.512
0.824,-0.012,0.322,19.226,-130.432,-2.014
0.797,-0.010,0.416,35.339,-130.920,2.625
0.759,0.080,0.582,43.579,-122.192,8.118
0.912,0.117,0.793,46.875,-110.352,13.916
0.864,-0.066,0.791,39.429,-107.788,17.761
0.717,-0.009,0.813,54.321,-82.520,45.166
0.857,0.260,0.904,81.360,-116.028,77.637
0.790,0.303,1.156,84.778,-109.619,24.597
0.640,0.198,1.069,69.519,-79.712,32.654
0.633,0.290,1.038,52.551,-47.913,63.354
0.623,0.261,1.020,48.279,-32.898,48.950
0.519,0.141,0.981,36.804,-28.015,44.678
0.510,0.383,1.077,42.908,-18.311,71.411
0.461,0.513,0.999,31.677,9.277,65.796
0.476,0.482,1.018,22.339,11.719,43.640
0.485,0.530,0.986,36.072,28.015,46.021
0.451,0.396,0.969,40.710,22.644,36.499
0.453,0.396,0.954,36.560,31.738,28.076
0.458,0.468,0.970,24.048,23.621,29.541
0.444,0.424,0.918,5.188,-3.052,15.076
0.412,0.361,0.875,-6.409,-14.832,6.348
0.419,0.385,0.863,-9.766,-14.893,12.024
0.435,0.337,0.884,-7.996,-19.836,2.380
0.426,0.317,0.845,3.845,-3.662,-1.648
0.413,0.285,0.827,10.864,-10.254,-2.991
0.424,0.248,0.856,4.944,-16.418,2.136
0.420,0.232,0.874,6.165,-13.672,5.249
0.443,0.256,0.922,4.272,-6.348,-1.587
0.442,0.263,0.935,8.850,-9.155,-7.446
0.424,0.232,0.911,10.559,-2.380,-8.606
0.417,0.220,0.885,12.451,4.211,-7.446
0.425,0.216,0.883,10.742,12.939,-2.075
0.419,0.208,0.868,8.972,29.053,5.920
0.436,0.197,0.850,7.263,36.011,14.465
0.421,0.245,0.850,0.000,28.870,17.822
0.460,0.263,0.878,1.770,35.767,7.080
0.509,0.242,0.852,11.536,44.800,-10.559
0.500,0.251,0.836,16.235,31.433,-12.085
0.515,0.190,0.824,15.442,22.095,-7.263
0.529,0.214,0.871,1.892,9.094,-0.244
0.538,0.156,0.846,-2.869,3.784,0.549
0.537,0.195,0.844,1.526,5.615,1.038
0.554,0.171,0.836,7.446,7.019,-1.526
0.521,0.189,0.826,5.432,10.132,4.028
0.495,0.203,0.787,7.507,17.212,2.747
0.536,0.182,0.794,4.639,-3.540,-1.953
0.567,0.207,0.882,-2.014,-11.658,12.695
0.543,0.202,0.851,1.770,2.502,-0.244
0.518,0.197,0.813,6.470,0.366,-3.479
0.529,0.210,0.829,-0.366,-4.578,2.197
0.531,0.212,0.838,-3.235,-6.775,5.493
0.530,0.191,0.823,-2.563,-4.883,3.723
0.526,0.206,0.832,4.395,-7.996,3.479
0.540,0.193,0.842,4.456,-16.052,5.737
0.519,0.172,0.862,2.991,-13.489,3.723

0.493,0.089,0.857,1.404,-1.953,-7.202
0.510,0.089,0.872,2.991,-1.709,-4.089
0.509,0.084,0.868,2.441,-0.427,-3.418
0.504,0.092,0.861,1.526,0.488,-1.953
0.499,0.088,0.854,0.366,-1.282,-1.038
0.505,0.092,0.874,-0.671,-2.625,-0.122
0.508,0.093,0.880,-0.061,-1.282,-0.854
0.499,0.086,0.865,0.793,-0.305,-1.526
0.492,0.099,0.864,0.305,-2.808,0.122
0.491,0.099,0.872,-2.014,-3.113,2.441
0.491,0.108,0.879,-2.625,-0.732,-0.488
0.492,0.087,0.863,0.061,-0.854,-4.517
0.488,0.091,0.853,-0.183,-4.883,-1.404
0.496,0.086,0.847,3.845,-4.150,-4.272
0.490,0.075,0.843,2.502,-5.676,-8.301
0.521,0.046,0.852,-3.479,-9.949,0.061
0.531,0.026,0.851,-5.798,-11.780,5.920
0.552,0.016,0.885,-2.930,-15.442,10.010
0.581,0.005,0.909,-10.071,-14.648,20.630
0.602,-0.040,0.891,-17.334,-15.930,32.532
0.612,-0.069,0.899,-21.606,-21.362,41.504
0.599,-0.027,0.939,-17.822,-14.038,50.903
0.573,0.042,0.967,-9.583,-13.916,52.917
0.541,0.131,0.993,-12.085,-5.981,55.054
0.538,0.162,1.001,-23.376,-0.977,61.462
0.562,0.178,1.058,-31.006,1.587,65.735
0.533,0.214,1.051,-29.358,5.127,71.838
0.496,0.324,1.095,-29.236,6.958,79.041
0.475,0.429,1.116,-41.870,4.272,82.153
0.431,0.473,1.103,-49.316,8.789,76.599
0.414,0.507,1.064,-61.035,23.193,69.946
0.360,0.587,1.017,-64.941,39.246,69.214
0.343,0.637,0.980,-65.369,52.917,59.265
0.341,0.634,0.902,-72.998,70.313,47.668
0.298,0.745,0.869,-78.796,84.534,45.471
0.304,0.871,0.903,-77.637,94.788,31.799
0.289,0.843,0.807,-71.838,82.581,5.615
0.258,0.886,0.742,-76.599,72.693,-7.141
0.260,0.846,0.673,-76.599,66.162,-25.269
0.202,0.776,0.520,-79.956,73.853,-38.086
0.176,0.809,0.412,-80.688,84.167,-43.579
0.221,0.762,0.341,-78.186,88.074,-53.833
0.249,0.701,0.270,-85.815,58.289,-61.523
0.294,0.708,0.258,-81.543,38.025,-65.613
0.350,0.590,0.252,-84.229,20.081,-76.477
0.363,0.574,0.228,-83.557,12.634,-69.458
0.370,0.655,0.185,-80.566,-4.395,-68.298
0.390,0.584,0.131,-78.857,-28.748,-70.862
0.395,0.492,0.114,-76.050,-45.227,-71.838
0.436,0.508,0.097,-69.702,-55.115,-68.665
0.465,0.509,0.114,-61.035,-63.904,-82.153
0.466,0.343,0.166,-57.190,-69.885,-83.496
0.575,0.261,0.178,-53.711,-75.867,-73.303
0.583,0.254,0.232,-26.245,-72.571,-78.491
0.557,0.192,0.262,-18.250,-70.313,-75.989
0.710,0.139,0.241,-21.484,-85.083,-62.439
0.699,0.080,0.300,-15.930,-89.539,-58.716
0.646,-0.018,0.333,-15.381,-90.515,-50.964
0.737,-0.049,0.364,-26.550,-96.313,-31.921
0.722,-0.023,0.448,-5.066,-100.098,-19.714
0.739,0.122,0.591,14.160,-102.417,-15.686
0.814,0.095,0.685,20.142,-103.882,-27.893
0.749,-0.070,0.670,14.221,-97.412,-22.400
0.783,-0.008,0.762,18.066,-94.971,-5.310
0.757,0.109,0.831,39.368,-83.801,-3.967
0.750,-0.015,0.834,33.997,-81.787,-9.827
0.657,0.003,0.892,33.936,-71.838,8.118
0.644,0.111,0.858,51.086,-65.613,12.268
0.689,0.130,0.922,45.471,-69.763,6.897
0.617,0.018,0.966,32.410,-59.998,13.550
0.604,0.037,0.966,42.175,-47.119,16.479
0.623,0.069,1.054,41.016,-64.697,32.410
0.565,0.051,1.097,51.331,-50.598,8.179
0.548,0.003,1.049,51.697,-32.593,21.057
0.570,-0.045,1.024,39.795,-30.212,27.161
0.490,-0.094,0.968,44.189,-30.457,35.522
0.431,-0.040,0.975,52.185,-31.616,44.861
0.427,0.030,1.017,47.058,-26.794,49.438
0.407,-0.037,1.010,36.011,-15.869,55.542
0.405,0.089,1.057,43.030,-5.859,59.875
0.417,0.166,1.068,34.912,10.071,63.049
0.419,0.068,1.021,19.287,3.540,50.049
0.381,0.155,1.046,19.409,5.859,71.045
0.423,0.255,1.054,27.100,10.010,54.138
0.406,0.160,1.027,13.672,-0.427,43.762
0.375,0.243,1.032,1.221,11.475,53.467
0.370,0.252,1.023,3.174,12.756,42.480
0.332,0.204,0.973,-7.935,8.118,26.062
0.372,0.172,1.008,-7.019,8.545,26.184
0.405,0.194,1.050,-0.977,21.362,25.574
0.344,0.149,0.904,-10.559,27.405,19.104
0.333,0.182,0.846,-10.376,18.188,17.639
0.353,0.205,0.833,-1.160,5.798,15.686
0.394,0.184,0.880,1.343,-2.136,10.620
0.392,0.192,0.907,-0.488,4.395,9.644
0.365,0.193,0.885,0.793,1.892,3.662
0.386,0.163,0.877,0.427,-1.709,2.686
0.379,0.155,0.888,-0.244,-0.366,2.380
0.393,0.158,0.916,-1.526,-1.892,2.441
0.404,0.170,0.915,0.488,1.221,0.061
0.417,0.156,0.904,-1.709,-0.732,-0.549
0.409,0.137,0.903,-1.587,-2.075,1.282
0.428,0.135,0.926,-0.427,1.160,0.793
0.441,0.122,0.921,-0.916,5.676,-2.625
0.442,0.095,0.915,-0.610,6.104,-1.892
0.442,0.102,0.912,0.488,3.235,0.671
0.438,0.102,0.915,2.319,2.625,0.916
0.442,0.102,0.919,1.038,3.113,1.343
0.441,0.098,0.914,0.916,6.165,1.831
0.434,0.107,0.891,2.747,4.639,1.099
0.433,0.121,0.887,2.197,2.075,0.793
0.439,0.134,0.905,-0.305,0.854,2.625
0.438,0.131,0.896,0.000,1.221,1.709
0.432,0.120,0.889,-0.488,-0.183,2.991
0.431,0.137,0.913,1.221,-2.075,1.831
0.435,0.131,0.909,1.160,0.793,0.427
0.428,0.138,0.890,2.808,1.892,-2.380
0.428,0.127,0.901,1.831,-1.160,-0.244
0.437,0.131,0.919,0.122,-1.709,-1.038
0.434,0.112,0.915,-0.549,-0.488,-0.977
0.428,0.121,0.906,-0.793,1.892,1.709
0.438,0.122,0.904,-0.427,0.488,0.549
0.433,0.131,0.897,0.549,3.479,0.671
0.433,0.129,0.886,-0.244,3.235,0.549
0.434,0.130,0.894,-0.671,2.380,1.099

0.428,0.140,0.888,-1.343,-5.432,7.080
0.417,0.132,0.882,0.305,-6.104,5.676
0.420,0.130,0.891,-2.319,-7.385,7.507
0.410,0.132,0.878,-1.038,-9.216,10.071
0.391,0.108,0.842,-0.732,-14.954,17.212
0.409,0.083,0.845,-5.737,-19.714,23.743
0.452,0.088,0.899,-6.775,-14.893,27.710
0.452,0.091,0.948,-3.906,-10.803,28.870
0.456,0.085,0.931,-5.798,-13.489,38.513
0.502,0.065,0.956,-15.686,-16.602,49.744
0.534,0.033,1.013,-21.973,-14.709,59.998
0.518,0.081,1.036,-24.780,-6.348,74.463
0.490,0.209,1.028,-25.513,-1.709,78.918
0.469,0.217,1.001,-29.297,-3.784,78.735
0.437,0.284,1.095,-37.903,-5.188,88.013
0.423,0.402,1.199,-44.800,7.812,98.755
0.390,0.562,1.144,-46.875,19.714,89.722
0.327,0.599,1.060,-49.438,23.010,65.430
0.254,0.598,0.988,-57.007,24.292,54.993
0.278,0.629,0.989,-73.608,26.733,60.059
0.282,0.653,0.935,-78.369,46.326,61.401
0.289,0.714,0.805,-73.608,63.049,42.725
0.395,0.679,0.662,-60.181,62.439,18.921
0.417,0.630,0.688,-66.589,52.429,19.287
0.316,0.747,0.893,-67.322,78.186,22.583
0.219,0.919,0.920,-49.927,81.238,-19.531
0.171,0.837,0.817,-59.631,67.505,-26.794
0.222,0.914,0.761,-63.293,58.838,-31.555
0.210,0.966,0.623,-59.570,67.200,-52.063
0.158,0.945,0.462,-72.388,74.890,-63.538
0.227,0.905,0.397,-75.745,80.688,-73.975
0.296,0.870,0.314,-76.538,77.209,-93.506
0.289,0.898,0.206,-71.472,62.927,-96.130
0.285,0.829,0.163,-76.721,40.100,-93.750
0.346,0.791,0.257,-84.412,22.217,-91.064
0.385,0.750,0.315,-87.585,5.432,-91.187
0.401,0.644,0.239,-93.994,-15.137,-96.375
0.394,0.540,0.185,-97.412,-34.973,-85.937
0.408,0.543,0.234,-89.722,-54.810,-77.576
0.407,0.388,0.192,-86.182,-60.547,-85.144
0.366,0.239,0.161,-84.595,-75.745,-79.773
0.441,0.178,0.174,-72.937,-80.688,-64.880
0.511,0.201,0.202,-42.847,-85.266,-54.932
0.527,0.234,0.280,-31.738,-90.210,-50.232
0.584,0.200,0.319,-33.081,-93.933,-46.631
0.659,0.094,0.342,-24.170,-107.666,-54.321
0.597,0.050,0.415,-17.761,-108.459,-40.649
0.680,0.025,0.443,-23.376,-104.980,-20.142
0.703,-0.022,0.520,-12.573,-101.379,-12.512
0.669,0.042,0.607,6.104,-90.576,-7.874
0.703,0.082,0.654,2.380,-86.487,3.418
0.728,0.081,0.755,11.475,-76.172,11.536
0.682,0.084,0.727,21.057,-65.125,11.780
0.677,0.118,0.783,27.344,-58.350,16.174
0.676,0.150,0.794,47.729,-44.983,13.977
0.623,0.202,0.698,55.420,-46.387,16.602
0.655,0.288,0.775,52.002,-70.251,8.240
0.632,0.131,0.894,45.227,-68.237,13.794
0.652,-0.019,0.940,38.391,-52.917,26.306
0.627,0.113,0.959,63.477,-38.269,31.738
0.559,0.149,0.960,64.087,-33.813,19.836
0.550,0.047,0.924,46.021,-31.006,26.367
0.599,0.100,1.012,38.330,-41.992,68.054
0.462,0.171,1.007,69.092,-41.931,29.114
0.497,0.229,1.014,60.730,-34.058,39.673
0.528,0.277,1.146,51.392,-31.189,42.725
0.514,0.224,1.146,59.204,-15.808,34.973
0.470,0.077,1.008,47.424,-12.512,23.193
0.389,0.046,1.000,28.625,-6.775,42.419
0.422,0.097,1.045,42.664,-6.104,49.011
0.464,0.117,1.060,47.180,-2.502,44.189
0.416,0.156,1.054,28.564,11.169,51.697
0.460,0.240,1.115,34.241,32.776,58.777
0.485,0.237,1.080,41.748,38.513,43.457
0.469,0.311,1.059,30.334,67.871,54.504
0.455,0.341,1.004,22.522,41.809,40.771
0.436,0.249,0.944,11.841,25.940,19.165
0.458,0.173,0.950,3.906,31.372,22.949
0.445,0.097,0.920,5.066,46.021,33.813
0.419,0.155,0.857,4.883,36.682,30.579
0.459,0.137,0.870,0.854,28.809,25.635
0.444,0.160,0.825,5.127,28.198,27.710
0.446,0.203,0.790,8.179,21.606,21.240
0.489,0.243,0.812,6.104,18.066,14.587
0.469,0.232,0.773,-1.770,9.827,7.935
0.501,0.204,0.786,0.061,5.005,6.836
0.538,0.173,0.819,0.854,-2.136,7.263
0.520,0.173,0.840,-0.244,4.456,7.263
0.510,0.150,0.823,-2.136,6.470,5.920
0.535,0.090,0.806,2.747,5.066,5.981
0.536,0.110,0.798,7.996,-2.075,5.859
0.569,0.146,0.829,8.484,-0.549,5.798
0.556,0.135,0.821,7.935,3.174,6.042
0.571,0.132,0.832,13.733,2.991,4.150
0.583,0.153,0.869,13.184,0.000,3.174
0.583,0.149,0.869,0.366,-2.930,5.981
0.570,0.123,0.864,-6.104,-1.526,16.663
0.568,0.128,0.866,-2.686,2.380,15.747
0.561,0.137,0.853,-0.305,0.000,9.094
0.558,0.144,0.851,1.770,1.282,9.583
0.563,0.176,0.860,5.188,6.958,4.089
0.549,0.177,0.838,5.981,6.042,-1.587
0.544,0.151,0.820,1.038,3.113,2.075
0.543,0.132,0.820,3.113,1.831,1.465
0.550,0.152,0.845,1.221,2.258,2.197
0.559,0.138,0.841,-5.493,4.028,8.850
0.546,0.133,0.811,-2.869,3.479,5.249
0.553,0.148,0.809,0.977,3.113,3.174
0.561,0.155,0.819,-0.916,4.822,6.714
0.474,0.212,0.775,14.343,14.709,2.747
0.601,0.123,0.857,20.081,29.358,-16.907
0.625,0.105,0.826,7.263,18.799,-1.526
0.607,0.113,0.809,0.977,7.385,4.639
0.585,0.124,0.797,-1.648,-0.427,3.052
0.595,0.121,0.801,-4.517,-2.380,7.080
0.595,0.119,0.804,-2.686,-1.953,7.751
0.596,0.140,0.823,-0.366,-0.610,7.629
0.589,0.151,0.802,-2.686,2.686,6.958
0.582,0.147,0.796,-3.296,0.732,7.446
0.584,0.144,0.801,-1.282,-0.610,5.920
0.589,0.145,0.801,1.526,-0.122,2.869
0.591,0.165,0.815,3.418,3.418,2.869
0.573,0.152,0.795,1.892,3.601,0.427
0.582,0.145,0.800,3.174,-1.160,0.610
0.589,0.155,0.812,3.967,-3.357,1.038

0.593,0.058,0.770,-7.507,-17.151,17.212
0.609,0.029,0.778,-5.981,-20.264,23.865
0.656,0.018,0.799,-10.498,-29.297,31.128
0.640,0.079,0.816,-15.259,-37.231,43.579
0.689,0.076,0.811,-20.081,-42.786,52.490
0.681,0.088,0.901,-20.264,-47.058,70.557
0.632,0.142,1.007,-16.479,-43.030,78.979
0.632,0.214,1.028,-21.912,-39.734,78.308
0.564,0.238,1.009,-35.034,-48.157,83.252
0.502,0.278,1.094,-45.288,-49.011,100.708
0.467,0.391,1.138,-52.429,-33.630,106.628
0.391,0.550,1.128,-53.650,-19.775,96.985
0.296,0.601,1.033,-64.819,-8.789,87.708
0.227,0.665,1.038,-74.463,-2.625,94.421
0.188,0.736,0.965,-84.106,13.000,87.830
0.161,0.798,0.923,-87.769,35.828,72.693
0.079,0.818,0.851,-62.378,58.350,54.749
-0.008,0.971,0.774,-63.660,68.237,32.104
0.065,0.962,0.781,-70.557,63.049,-3.784
0.052,0.897,0.711,-64.819,58.411,-19.470
0.072,0.911,0.713,-59.204,66.223,-31.921
0.046,0.859,0.645,-65.125,65.735,-34.058
0.067,0.834,0.616,-81.482,60.181,-40.039
0.083,0.837,0.535,-79.346,63.721,-48.645
0.127,0.851,0.474,-83.435,67.200,-54.871
0.110,0.859,0.371,-84.839,59.814,-73.853
0.203,0.919,0.362,-76.965,48.767,-100.281
0.285,0.904,0.459,-81.177,67.078,-115.967
0.260,0.869,0.374,-83.069,80.750,-117.249
0.244,0.747,0.117,-88.806,50.964,-88.501
0.301,0.739,0.084,-78.857,16.968,-94.971
0.339,0.595,0.058,-74.524,-17.151,-97.717
0.370,0.507,0.068,-70.923,-46.021,-88.074
0.440,0.452,0.113,-70.190,-60.974,-77.576
0.467,0.454,0.127,-64.697,-62.073,-66.223
0.448,0.407,0.094,-58.350,-69.458,-67.871
0.473,0.372,0.077,-54.199,-89.294,-66.406
0.515,0.286,0.112,-48.950,-102.966,-61.707
0.515,0.189,0.239,-41.443,-106.750,-55.969
0.662,0.173,0.344,-32.410,-101.746,-52.917
0.615,0.130,0.330,-16.663,-94.055,-55.664
0.501,0.100,0.353,-13.977,-98.145,-49.805
0.631,0.010,0.383,-15.869,-116.821,-41.077
0.732,-0.018,0.595,-8.728,-116.516,-23.560
0.665,0.069,0.689,-6.531,-89.355,-4.150
0.719,0.012,0.629,5.493,-89.966,-8.240
0.703,0.022,0.649,24.353,-93.262,-8.118
0.685,0.128,0.708,20.935,-81.726,12.451
0.683,0.164,0.683,28.564,-81.421,13.184
0.630,0.163,0.767,43.396,-90.027,15.259
0.714,0.142,0.902,44.006,-90.210,15.442
0.675,0.083,0.907,51.025,-74.402,11.597
0.533,0.055,0.846,48.950,-64.270,21.118
0.587,0.137,1.029,46.509,-65.796,38.086
0.591,0.178,1.001,62.134,-48.401,29.480
0.537,0.206,0.984,57.556,-39.673,19.531
0.527,0.223,1.035,55.115,-45.105,28.748
0.603,0.194,1.076,66.101,-50.415,16.479
0.484,0.137,1.050,61.584,-26.733,28.931
0.451,0.168,1.121,47.363,-20.813,35.400
0.499,0.043,1.028,48.462,-18.127,29.785
0.415,0.041,0.994,44.983,-17.761,47.546
0.407,0.140,1.094,48.767,-19.470,49.011
0.418,0.077,1.099,38.940,-7.690,41.016
0.365,0.041,1.048,23.682,9.705,58.838
0.376,0.136,1.053,34.180,11.841,58.167
0.397,0.187,1.067,46.021,3.418,47.302
0.376,0.162,0.995,26.428,8.057,59.204
0.363,0.190,1.023,12.268,12.390,62.744
0.378,0.196,1.008,15.686,28.320,62.927
0.364,0.274,1.045,15.930,37.354,61.646
0.347,0.316,1.046,11.353,41.992,58.716
0.392,0.199,1.033,0.732,41.077,47.607
0.370,0.153,0.975,0.122,36.194,51.758
0.353,0.205,0.928,1.709,33.997,49.316
0.357,0.280,0.926,3.235,28.503,44.373
0.359,0.325,0.909,3.845,32.776,36.743
0.359,0.318,0.844,3.662,25.024,24.841
0.367,0.331,0.833,1.648,10.864,16.479
0.395,0.331,0.859,0.488,8.850,11.169
0.384,0.292,0.842,2.319,7.690,4.761
0.417,0.216,0.880,0.488,-0.671,3.052
0.450,0.199,0.924,-1.282,2.686,8.423
0.457,0.209,0.927,-1.099,7.263,0.549
0.455,0.186,0.892,-2.502,2.197,0.244
0.468,0.176,0.890,0.732,2.625,0.122
0.486,0.200,0.894,2.075,6.592,-3.479
0.481,0.180,0.852,0.671,5.554,-5.188
0.480,0.187,0.838,1.282,-0.732,-1.770
0.500,0.189,0.854,-0.183,-2.136,-1.709
0.502,0.168,0.873,1.709,2.930,-2.075
0.489,0.167,0.882,2.563,2.686,-1.404
0.506,0.187,0.896,1.709,3.540,-3.845
0.490,0.141,0.867,-0.488,3.052,-2.014
0.495,0.160,0.867,2.869,3.174,0.610
0.491,0.181,0.868,2.808,2.869,-1.526
0.478,0.167,0.849,-2.075,1.892,1.587
0.483,0.176,0.862,0.244,-0.793,3.723
0.489,0.192,0.887,4.089,0.427,-0.671
0.478,0.183,0.872,4.578,3.784,-3.723
0.475,0.155,0.862,-0.854,1.465,-2.319
0.485,0.159,0.868,0.366,0.732,1.343
0.477,0.168,0.868,1.709,-0.061,0.000
0.481,0.176,0.868,-0.061,1.526,1.160
0.490,0.185,0.869,1.099,0.244,0.061
0.490,0.194,0.879,0.061,1.587,0.183
0.481,0.174,0.862,-0.427,2.563,-1.099
0.486,0.177,0.858,2.197,2.991,-4.028
0.485,0.170,0.849,0.854,1.587,-2.686
0.491,0.160,0.852,1.404,0.732,-1.465
0.479,0.169,0.847,2.014,1.221,-3.113
0.494,0.159,0.868,-0.977,0.671,-0.977
0.492,0.158,0.861,0.549,-0.244,-1.709
0.494,0.154,0.862,2.014,0.305,-3.296
0.498,0.158,0.859,1.282,0.000,-1.282
0.512,0.151,0.871,1.099,1.038,-1.160
0.509,0.138,0.871,2.747,2.197,-0.488
0.494,0.166,0.862,0.977,0.977,1.587
0.496,0.158,0.854,-1.587,1.099,1.465
0.498,0.154,0.864,1.587,0.732,0.061
0.493,0.154,0.861,2.258,1.099,-0.671
0.491,0.154,0.855,-0.061,0.488,1.282
0.495,0.163,0.863,1.404,1.282,1.343
0.493,0.179,0.876,2.747,0.244,0.549
0.494,0.171,0.862,2.197,-0.305,1.892

0.880,-0.333,0.542,59.204,60.486,26.550
0.881,-0.294,0.483,66.284,86.853,18.311
0.927,-0.293,0.449,56.030,77.454,18.799
0.926,-0.295,0.413,44.006,57.556,35.095
0.902,-0.248,0.331,39.124,48.218,34.973
0.936,-0.231,0.326,33.997,30.884,30.090
0.887,-0.176,0.288,31.433,34.363,32.654
0.864,-0.140,0.252,25.574,27.466,21.057
0.893,-0.131,0.262,17.517,-5.798,12.878
0.860,-0.109,0.262,13.306,-19.836,8.850
0.834,-0.041,0.178,15.259,-37.354,-6.165
0.792,0.025,0.016,27.039,-67.932,-16.052
0.864,0.014,-0.173,47.607,-133.240,-47.363
1.104,-0.247,-0.166,103.821,-192.627,-61.768
1.396,-0.604,0.063,118.713,-194.214,-18.066
1.278,-0.705,0.278,89.783,-177.551,58.411
0.879,-0.556,0.596,103.638,-178.223,85.571
0.688,-0.447,0.874,75.012,-192.322,58.105
0.577,-0.457,1.018,31.677,-199.402,58.167
0.467,-0.435,1.062,11.353,-181.885,73.181
0.326,-0.374,0.975,12.024,-118.958,79.712
0.290,-0.330,0.976,15.625,-120.605,67.627
0.201,-0.337,1.103,-11.597,-136.292,65.369
0.204,-0.386,1.122,-21.851,-97.961,55.420
0.171,-0.340,1.079,-33.203,-72.754,65.735
0.096,-0.278,1.049,-37.109,-42.603,70.435
0.082,-0.248,1.098,-40.100,-27.527,52.124
0.145,-0.229,1.180,-50.842,-4.944,52.612
0.110,-0.266,1.256,-59.143,27.039,54.565
0.038,-0.220,1.296,-81.116,65.979,42.969
0.183,-0.232,1.233,-127.319,88.623,41.992
0.217,-0.187,1.101,-158.020,66.711,42.969
0.232,-0.047,1.057,-153.687,60.364,37.109
0.225,0.002,1.028,-169.128,70.740,28.931
0.243,0.125,0.893,-167.114,68.665,11.169
0.290,0.211,0.818,-139.221,72.754,17.029
0.318,0.225,0.851,-133.789,65.552,9.521
0.289,0.281,0.674,-132.935,52.002,-7.324
0.292,0.333,0.511,-122.253,67.627,-23.804
0.363,0.322,0.539,-107.483,83.130,-40.771
0.460,0.348,0.645,-102.905,98.816,-46.387
0.424,0.309,0.380,-88.684,118.408,-59.998
0.431,0.317,0.327,-76.599,111.328,-68.420
0.498,0.328,0.312,-79.773,118.347,-91.858
0.503,0.261,0.154,-80.505,105.530,-94.727
0.543,0.248,0.120,-88.501,82.703,-83.374
0.612,0.274,-0.018,-83.740,79.773,-84.290
0.567,0.214,-0.077,-76.111,62.012,-89.111
0.557,0.182,-0.150,-86.304,30.579,-91.187
0.631,0.179,-0.348,-87.158,0.671,-95.764
0.606,0.095,-0.359,-64.758,-9.888,-108.215
0.631,0.042,-0.271,-54.687,-45.837,-124.146
0.720,-0.015,-0.264,-68.542,-110.840,-142.334
0.774,-0.206,-0.209,-45.166,-123.718,-151.733
0.938,-0.276,-0.143,13.184,-82.275,-152.161
0.896,-0.300,-0.158,26.917,-66.467,-139.771
0.887,-0.391,-0.070,-4.028,-132.935,-129.761
1.136,-0.530,0.123,56.030,-127.747,-136.536
1.045,-0.668,0.158,107.910,-54.626,-119.629
1.014,-0.753,0.174,111.755,-53.345,-107.544
1.075,-0.842,0.267,121.948,-58.350,-88.318
1.255,-0.921,0.337,129.150,-20.020,-40.649
1.175,-0.812,0.323,115.173,4.395,-12.878
1.169,-0.820,0.276,88.562,-17.395,-3.906
1.166,-0.799,0.204,67.749,-31.738,25.696
1.088,-0.717,0.280,91.797,-38.330,41.443
1.016,-0.646,0.341,84.229,-33.386,30.334
0.930,-0.625,0.238,60.059,-43.701,32.166
0.908,-0.656,0.436,75.134,-79.956,32.898
0.929,-0.655,0.603,73.242,-29.724,35.217
0.798,-0.602,0.451,54.321,1.160,48.340
0.793,-0.620,0.410,66.650,5.615,51.392
0.802,-0.543,0.525,48.584,-9.521,44.617
0.847,-0.553,0.489,43.579,21.790,54.199
0.765,-0.492,0.334,13.794,2.991,59.570
0.809,-0.481,0.337,16.113,8.118,44.006
0.862,-0.471,0.365,8.118,20.935,45.227
0.822,-0.404,0.319,-5.249,19.226,48.889
0.883,-0.393,0.328,-10.010,4.700,24.536
0.909,-0.367,0.266,-6.897,16.174,21.545
0.916,-0.334,0.238,-6.897,5.981,22.034
0.929,-0.337,0.269,-22.522,-16.724,26.306
0.905,-0.315,0.239,-21.423,-7.507,16.785
0.905,-0.283,0.227,-13.733,0.671,6.287
0.901,-0.282,0.188,-16.418,-4.578,11.658
0.896,-0.284,0.138,-14.893,-2.136,12.512
0.932,-0.322,0.168,-8.423,-2.258,8.972
0.930,-0.315,0.177,-10.010,10.742,9.155
0.905,-0.280,0.123,-6.409,8.362,9.888
0.912,-0.269,0.159,-2.319,-0.549,11.841
0.901,-0.256,0.195,-6.226,4.211,2.197
0.906,-0.258,0.151,-8.484,8.545,-6.348
0.914,-0.267,0.144,-4.395,11.414,-7.690
0.925,-0.272,0.148,-3.479,10.315,-4.883
0.963,-0.307,0.162,-2.075,2.686,0.061
0.949,-0.301,0.135,0.000,4.272,1.160
0.955,-0.296,0.152,1.709,-2.502,-1.831
0.961,-0.289,0.179,-0.427,3.113,0.000
0.950,-0.286,0.180,-1.465,-0.183,1.770
0.947,-0.285,0.197,-2.075,-2.686,0.427
0.957,-0.301,0.208,-4.456,-2.380,0.427
0.945,-0.299,0.228,-6.409,0.549,3.479
0.944,-0.290,0.215,-9.949,0.732,2.869
0.940,-0.282,0.205,-14.343,-0.793,3.601
0.930,-0.278,0.178,-13.855,-0.488,3.052
0.940,-0.282,0.183,-10.742,-1.587,1.587
0.929,-0.270,0.168,-10.071,-0.183,3.784
0.932,-0.259,0.154,-9.338,-0.977,1.282
0.954,-0.275,0.186,-7.141,-4.761,1.099
0.952,-0.272,0.192,-6.653,0.244,2.991
0.943,-0.272,0.172,-7.263,-1.282,2.686
0.942,-0.271,0.190,-7.446,-5.676,1.526
0.944,-0.271,0.206,-6.958,-4.517,1.892
0.939,-0.263,0.216,-6.592,-1.282,1.404
0.933,-0.264,0.219,-5.920,-0.916,1.953
0.933,-0.257,0.207,-6.592,-2.991,1.892
0.941,-0.260,0.225,-6.104,-3.601,0.488
0.948,-0.261,0.229,-8.118,-0.671,0.916
0.946,-0.261,0.218,-7.751,2.747,1.221
0.952,-0.261,0.229,-6.653,3.662,2.197
0.953,-0.257,0.237,-7.507,4.883,2.014
0.951,-0.252,0.213,-6.958,8.179,2.441
0.948,-0.252,0.196,-5.310,9.827,1.465
0.939,-0.248,0.195,-6.958,8.789,2.869
0.940,-0.243,0.184,-5.615,8.972,3.540

0.946,-0.253,0.163,-1.038,-0.610,-1.099
0.955,-0.258,0.179,-0.793,-0.244,-1.099
0.959,-0.260,0.177,-1.648,-0.854,-0.427
0.955,-0.266,0.165,-0.244,0.671,-0.610
0.954,-0.265,0.176,0.122,0.000,0.244
0.945,-0.252,0.173,-0.793,1.038,0.793
0.950,-0.261,0.180,0.000,-0.061,-0.366
0.947,-0.256,0.172,-0.122,0.000,0.244
0.951,-0.259,0.176,-0.183,-0.366,-0.244
0.949,-0.260,0.175,-0.427,-0.122,-0.305
0.948,-0.256,0.176,-0.183,0.366,-0.122
0.947,-0.250,0.179,0.061,1.282,-0.122
0.947,-0.252,0.175,-1.160,1.221,-0.305
0.953,-0.266,0.163,-1.038,0.610,-0.366
0.946,-0.257,0.165,-0.122,0.671,-0.610
0.942,-0.251,0.167,-0.122,0.061,-1.221
0.936,-0.247,0.174,-0.366,0.427,-1.892
0.937,-0.253,0.171,0.061,0.305,-2.380
0.940,-0.258,0.168,0.488,-0.488,-3.479
0.944,-0.263,0.176,0.244,0.000,-3.540
0.940,-0.264,0.177,0.305,0.305,-3.723
0.944,-0.269,0.173,-0.183,-0.671,-4.395
0.933,-0.263,0.170,-0.122,0.610,-4.150
0.929,-0.270,0.166,-0.244,-0.244,-4.822
0.936,-0.269,0.176,0.183,-0.610,-6.042
0.951,-0.273,0.173,0.000,0.061,-6.958
0.951,-0.253,0.140,-0.488,0.305,-6.958
0.973,-0.266,0.115,2.197,-2.808,-9.216
1.000,-0.266,0.102,5.432,-7.141,-10.864
1.053,-0.283,0.062,10.071,-10.620,-10.803
1.063,-0.280,0.042,13.977,-20.142,-4.944
1.125,-0.318,0.010,12.268,-37.842,-1.160
1.180,-0.351,-0.001,15.381,-56.946,10.864
1.161,-0.332,-0.016,29.358,-57.861,19.653
1.124,-0.288,-0.007,44.678,-64.453,27.100
1.049,-0.257,0.094,47.607,-85.815,36.743
1.025,-0.226,0.217,39.368,-116.699,47.119
1.029,-0.249,0.366,47.546,-111.572,47.668
1.038,-0.252,0.518,44.495,-114.746,46.021
1.019,-0.215,0.661,20.203,-119.934,58.044
0.945,-0.222,0.696,15.259,-113.953,58.228
0.941,-0.284,0.736,15.076,-107.178,54.504
0.898,-0.283,0.830,6.348,-109.741,57.312
0.854,-0.272,1.000,-12.024,-108.093,66.345
0.696,-0.227,1.134,-38.025,-95.154,68.604
0.604,-0.193,1.180,-54.565,-72.998,57.678
0.500,-0.188,1.099,-78.613,-61.462,61.462
0.426,-0.154,1.074,-101.440,-45.959,63.477
0.360,-0.084,0.967,-117.187,-28.564,58.777
0.311,-0.017,0.873,-123.230,-20.996,55.664
0.281,0.066,0.920,-119.446,-1.038,42.236
0.262,0.131,0.878,-117.920,20.569,25.818
0.281,0.164,0.717,-112.549,33.752,11.841
0.285,0.177,0.734,-95.520,49.744,2.258
0.320,0.195,0.752,-93.201,59.814,-5.310
0.313,0.214,0.678,-95.032,47.119,-8.728
0.328,0.270,0.622,-84.229,59.326,-25.269
0.365,0.304,0.558,-71.960,75.012,-42.236
0.374,0.298,0.474,-61.157,90.210,-54.260
0.421,0.263,0.412,-58.533,91.187,-66.772
0.478,0.223,0.327,-55.664,94.910,-76.416
0.485,0.200,0.258,-58.105,97.046,-80.994
0.531,0.211,0.176,-70.007,81.909,-77.026
0.543,0.244,0.119,-64.941,81.238,-86.609
0.519,0.155,0.013,-53.833,81.909,-97.534
0.528,0.114,-0.034,-53.406,65.247,-105.347
0.616,0.095,-0.131,-53.650,53.711,-105.835
0.616,0.057,-0.321,-50.476,43.396,-110.657
0.612,-0.095,-0.289,-57.373,-14.038,-116.211
0.787,-0.076,-0.276,-36.682,-30.701,-130.798
0.841,-0.203,-0.264,-5.737,-7.324,-130.127
0.834,-0.283,-0.208,-5.981,-19.287,-137.146
0.995,-0.335,-0.371,7.263,-23.804,-145.447
0.984,-0.493,-0.469,39.795,-27.100,-142.029
1.079,-0.562,-0.371,60.059,-64.453,-135.498
1.164,-0.689,-0.170,71.594,-77.209,-127.747
1.156,-0.822,-0.172,77.148,-55.298,-116.333
1.142,-0.823,-0.140,82.642,-62.195,-91.187
1.211,-0.892,-0.043,101.868,-83.679,-78.491
1.082,-0.887,-0.003,109.924,-66.711,-47.729
1.024,-0.854,0.285,112.610,-93.506,-34.973
1.122,-0.886,0.378,107.361,-82.275,-29.968
0.978,-0.827,0.134,75.623,-38.391,9.399
0.931,-0.848,0.348,61.768,-88.684,14.221
0.956,-0.845,0.427,72.388,-52.063,25.085
0.829,-0.760,0.393,64.636,-47.119,32.532
0.831,-0.730,0.507,45.349,-47.485,34.790
0.761,-0.646,0.418,33.325,-31.494,37.598
0.708,-0.609,0.430,27.710,-24.902,40.771
0.755,-0.608,0.504,12.451,-29.907,40.466
0.720,-0.555,0.398,1.709,-13.123,43.945
0.681,-0.507,0.339,-4.150,-9.033,37.598
0.685,-0.500,0.363,-2.808,-11.963,24.048
0.705,-0.476,0.361,-1.160,-4.700,13.977
0.708,-0.454,0.306,-0.671,0.549,7.385
0.742,-0.479,0.276,0.061,0.549,5.920
0.774,-0.495,0.248,-0.671,2.686,1.343
0.807,-0.497,0.257,-4.089,3.967,-1.770
0.841,-0.520,0.237,-6.592,1.831,-2.319
0.871,-0.532,0.235,-3.662,4.089,-1.404
0.858,-0.519,0.220,-3.540,6.104,2.563
0.847,-0.503,0.224,-5.737,1.526,0.244
0.866,-0.511,0.242,-7.690,-0.366,2.930
0.857,-0.508,0.240,-9.277,0.305,4.333
0.850,-0.504,0.235,-11.169,0.671,4.700
0.848,-0.495,0.226,-10.071,2.014,3.601
0.836,-0.492,0.207,-7.019,4.883,5.432
0.825,-0.484,0.191,-4.761,4.089,4.333
0.822,-0.479,0.200,-4.028,2.869,3.174
0.843,-0.493,0.226,-4.150,2.319,1.160
0.844,-0.488,0.224,-5.127,4.639,1.465
0.857,-0.499,0.238,-6.836,3.418,1.343
0.862,-0.499,0.231,-7.019,3.662,2.930
0.853,-0.489,0.234,-8.240,2.930,4.333
0.844,-0.476,0.217,-10.132,2.808,3.174
0.842,-0.469,0.199,-8.728,1.770,1.099
0.857,-0.474,0.214,-5.432,0.305,0.549
0.852,-0.463,0.225,-3.784,2.014,0.671
0.850,-0.465,0.214,-4.822,1.709,0.061
0.852,-0.470,0.202,-5.066,0.732,-0.183
0.849,-0.477,0.197,-3.052,-0.427,-0.061
0.852,-0.478,0.203,-1.160,0.305,1.160
0.841,-0.464,0.205,0.549,0.183,0.427
0.845,-0.461,0.213,0.854,-2.563,-0.610
0.851,-0.468,0.244,0.549,-1.648,-0.061

0.839,-0.466,0.236,-1.770,2.563,-0.916
0.840,-0.472,0.235,-1.648,1.221,-2.014
0.849,-0.481,0.231,-1.709,0.732,-2.380
0.837,-0.468,0.218,-0.671,0.977,-1.648
0.838,-0.467,0.224,0.122,-0.610,-2.319
0.839,-0.474,0.224,1.038,-0.977,-2.991
0.840,-0.488,0.216,1.160,-1.709,-3.296
0.854,-0.495,0.219,2.869,-3.296,-3.540
0.862,-0.488,0.224,4.211,-3.845,-2.808
0.863,-0.469,0.219,4.395,-5.981,-2.441
0.892,-0.478,0.209,5.371,-9.766,-1.526
0.939,-0.476,0.166,7.019,-11.841,0.671
1.017,-0.508,0.120,9.033,-23.071,3.967
1.084,-0.532,0.135,-0.854,-50.659,14.343
1.138,-0.515,0.131,-29.297,-92.346,34.058
1.149,-0.481,0.128,-28.076,-109.131,47.485
1.077,-0.430,0.211,-9.827,-114.868,57.007
1.040,-0.394,0.238,1.892,-129.028,73.669
0.834,-0.265,0.473,-31.555,-156.128,69.763
0.800,-0.327,0.654,-12.878,-161.743,50.110
0.775,-0.386,0.813,-2.014,-131.409,50.964
0.706,-0.320,0.809,-32.654,-151.794,56.824
0.607,-0.256,0.797,-32.349,-147.339,44.250
0.539,-0.426,0.847,-8.118,-123.718,25.024
0.644,-0.369,1.147,-15.320,-117.371,62.134
0.621,-0.364,1.058,-49.316,-123.108,145.203
0.210,-0.181,1.085,-34.485,-56.763,52.002
0.365,-0.132,1.028,-37.720,-67.444,55.481
0.299,-0.115,1.208,-37.170,-59.814,55.420
0.255,-0.090,1.143,-49.622,-14.648,55.237
0.151,-0.042,1.180,-71.411,-31.616,53.284
0.101,-0.053,1.394,-98.694,-54.199,40.588
0.097,-0.042,1.251,-112.183,7.874,35.583
-0.072,0.061,1.210,-127.625,23.376,36.926
-0.026,0.081,1.116,-142.639,58.228,10.376
-0.044,0.093,1.010,-138.611,68.787,7.690
-0.037,0.129,1.026,-140.259,67.383,-7.324
-0.014,0.142,0.970,-144.714,89.478,-23.621
0.045,0.208,0.678,-143.066,107.117,-34.180
0.090,0.286,0.544,-121.399,112.427,-56.396
0.145,0.286,0.484,-109.314,116.638,-76.660
0.240,0.276,0.332,-105.041,112.061,-89.233
0.279,0.323,0.167,-89.478,108.154,-97.290
0.325,0.339,0.175,-60.791,95.642,-115.417
0.383,0.256,0.195,-16.846,95.154,-137.512
0.493,0.178,0.156,-12.451,116.211,-147.644
0.575,0.095,0.009,-44.495,82.886,-118.164
0.494,0.034,-0.072,-19.714,82.825,-138.306
0.595,0.029,-0.139,-17.151,41.443,-153.809
0.706,-0.042,0.008,-22.339,22.095,-119.263
0.678,-0.064,0.013,-29.480,19.958,-111.145
0.717,-0.113,-0.057,-30.762,8.118,-119.812
0.755,-0.146,-0.076,-29.846,3.967,-132.080
0.801,-0.266,-0.182,-20.142,2.136,-123.962
0.735,-0.304,-0.268,-18.555,-12.573,-114.197
0.721,-0.349,-0.206,-3.784,-42.358,-126.221
0.826,-0.520,-0.131,19.226,-50.110,-156.738
0.909,-0.697,-0.082,32.959,-39.429,-161.194
0.979,-0.838,-0.110,25.696,-56.702,-154.297
0.946,-0.979,-0.217,45.898,-68.054,-123.840
0.904,-1.014,-0.070,65.552,-90.088,-99.548
0.982,-1.075,0.080,93.506,-101.013,-95.703
1.005,-1.110,0.061,100.037,-81.665,-70.068
0.984,-1.123,0.225,88.074,-107.483,-32.898
1.005,-1.109,0.300,89.111,-111.755,-11.719
0.874,-1.063,0.174,78.247,-76.477,20.447
0.822,-1.002,0.318,63.843,-98.450,40.344
0.870,-0.974,0.409,63.721,-97.107,43.640
0.805,-0.903,0.393,57.800,-71.655,66.223
0.753,-0.814,0.565,40.344,-95.703,75.806
0.765,-0.791,0.644,36.682,-89.783,72.876
0.702,-0.749,0.565,21.545,-35.889,79.651
0.638,-0.665,0.652,24.658,-56.030,77.271
0.608,-0.609,0.709,20.386,-27.161,59.998
0.627,-0.586,0.610,7.935,-23.804,57.861
0.589,-0.530,0.595,0.793,-23.193,50.781
0.595,-0.490,0.529,3.967,-18.860,38.025
0.582,-0.469,0.489,7.080,-12.207,26.001
0.593,-0.467,0.484,4.639,-8.850,10.620
0.650,-0.484,0.490,1.160,-9.033,6.775
0.669,-0.475,0.460,-0.061,-2.014,3.540
0.688,-0.501,0.414,-1.404,0.122,-0.671
0.717,-0.516,0.419,-3.113,0.671,-3.235
0.753,-0.542,0.378,-8.179,1.404,-6.958
0.778,-0.559,0.354,-5.188,0.610,-3.235
0.781,-0.548,0.338,0.427,2.686,-1.038
0.776,-0.528,0.354,1.648,-0.061,-0.671
0.776,-0.529,0.364,3.174,-0.183,-0.793
0.761,-0.528,0.365,1.648,0.183,1.465
0.763,-0.524,0.382,2.380,-3.296,0.183
0.770,-0.524,0.412,3.845,-1.465,-0.305
0.758,-0.530,0.391,1.282,-0.427,2.441
0.757,-0.530,0.405,0.610,-1.770,1.892
0.757,-0.528,0.395,0.427,0.549,-0.671
0.758,-0.538,0.390,-0.366,0.366,-0.061
0.757,-0.538,0.373,0.183,-0.732,0.427
0.765,-0.545,0.394,1.282,-2.625,0.610
0.758,-0.539,0.389,0.244,0.000,1.953
0.754,-0.529,0.378,0.244,-1.038,1.221
0.756,-0.532,0.389,0.854,-0.305,0.793
0.748,-0.520,0.384,1.343,0.916,0.977
0.742,-0.521,0.374,0.610,-0.854,-0.671
0.752,-0.535,0.392,1.160,-0.061,-0.061
0.773,-0.552,0.389,1.648,0.244,0.732
0.752,-0.530,0.378,1.953,0.977,1.953
0.751,-0.522,0.396,0.916,-0.122,-0.427
0.735,-0.508,0.383,0.366,0.183,-0.488
0.775,-0.549,0.402,0.793,-1.038,-2.197
0.779,-0.564,0.399,0.732,2.441,0.488
0.758,-0.540,0.390,0.244,2.441,3.052
0.751,-0.521,0.383,-0.427,0.793,1.648
0.751,-0.525,0.384,0.061,0.671,0.671
0.753,-0.530,0.384,0.549,0.366,0.854
0.756,-0.523,0.388,0.732,1.038,1.038
0.757,-0.521,0.385,-0.061,1.282,-0.183
0.757,-0.528,0.385,0.305,1.526,-0.122
0.769,-0.537,0.395,-0.183,1.404,-0.488
0.761,-0.526,0.382,-1.709,2.136,1.099
0.750,-0.521,0.376,-1.038,1.343,-0.244
0.766,-0.534,0.381,-1.282,0.305,-1.587
0.765,-0.535,0.376,-0.977,0.610,-0.610
0.767,-0.535,0.380,-0.122,1.526,-0.671
0.759,-0.521,0.366,-1.160,1.526,0.061
0.758,-0.523,0.368,-0.122,0.488,-0.977
0.761,-0.531,0.377,-1.282,-1.038,-1.282

0.739,-0.499,0.349,-4.211,4.272,-4.333
0.757,-0.515,0.346,-3.418,2.136,-5.188
0.777,-0.536,0.326,1.282,3.174,-2.563
0.776,-0.539,0.345,4.089,-0.854,-3.479
0.794,-0.534,0.347,3.479,-3.357,-0.366
0.813,-0.543,0.301,8.240,-7.629,1.526
0.861,-0.567,0.306,14.343,-10.437,3.357
0.977,-0.588,0.308,7.507,-30.701,11.536
1.054,-0.591,0.305,-3.723,-50.049,32.227
1.088,-0.546,0.308,-2.991,-53.833,40.588
1.135,-0.557,0.332,-30.762,-81.177,49.316
1.112,-0.515,0.328,-71.838,-136.963,68.665
1.031,-0.468,0.371,-46.448,-133.911,85.205
0.837,-0.415,0.639,-41.016,-161.011,90.210
0.741,-0.371,0.896,-34.851,-162.903,92.285
0.561,-0.228,1.088,-24.292,-136.658,98.206
0.494,-0.205,1.002,-54.932,-172.119,107.788
0.373,-0.162,0.956,-67.078,-163.879,98.022
0.292,-0.196,1.071,-9.216,-107.605,101.135
0.197,-0.147,1.305,-16.113,-83.862,63.416
0.216,-0.172,1.185,-80.383,-103.088,67.932
0.114,-0.113,1.203,-78.552,-70.740,59.937
0.100,-0.062,1.191,-53.955,-8.240,47.791
0.065,-0.029,1.267,-84.473,-18.677,41.199
0.012,0.024,1.266,-120.422,-14.648,33.081
-0.083,0.130,1.154,-125.793,25.452,22.095
-0.162,0.206,1.101,-111.816,58.594,-4.395
-0.125,0.181,1.102,-120.972,65.369,-26.611
-0.131,0.157,0.996,-135.498,85.327,-35.767
-0.108,0.181,0.801,-121.277,115.051,-48.889
-0.068,0.183,0.665,-104.736,113.159,-64.636
0.020,0.175,0.511,-92.590,128.723,-78.064
0.079,0.203,0.374,-73.608,113.708,-79.407
0.148,0.234,0.342,-51.147,107.178,-89.722
0.225,0.229,0.390,-32.166,108.826,-100.708
0.354,0.237,0.335,-57.190,90.759,-107.605
0.427,0.225,0.250,-52.307,89.294,-118.713
0.485,0.193,0.188,-24.353,95.947,-127.197
0.555,0.129,0.237,-18.127,67.017,-132.202
0.664,0.045,0.140,-28.870,53.894,-135.925
0.712,-0.054,0.020,-14.526,54.321,-126.282
0.732,0.007,0.087,-3.540,20.691,-105.469
0.788,-0.059,0.062,-26.062,-1.404,-106.750
0.815,-0.151,0.027,-9.277,7.263,-110.596
0.843,-0.205,0.076,5.859,4.089,-112.610
0.869,-0.270,0.080,7.507,-9.827,-119.812
0.913,-0.385,0.013,16.296,-17.212,-115.417
0.945,-0.437,-0.006,34.668,-13.062,-109.497
0.956,-0.450,-0.093,47.424,-6.836,-108.215
0.875,-0.538,-0.123,44.312,-41.443,-107.178
0.918,-0.652,0.068,66.589,-73.425,-115.479
1.039,-0.775,0.028,101.135,-34.851,-100.769
0.873,-0.769,-0.008,100.098,-41.077,-76.050
0.889,-0.838,0.125,90.881,-76.477,-86.731
0.995,-0.938,0.099,85.754,-76.721,-65.430
0.878,-0.974,0.265,84.900,-93.262,-34.790
0.886,-0.991,0.472,97.839,-80.383,-35.706
0.949,-0.989,0.365,92.285,-45.654,-10.437
0.820,-0.966,0.327,70.862,-70.740,11.169
0.806,-0.995,0.459,67.566,-81.970,14.343
0.803,-0.979,0.502,74.646,-58.777,27.344
0.734,-0.886,0.509,71.228,-38.635,42.480
0.688,-0.833,0.459,54.260,-31.555,46.631
0.669,-0.787,0.472,34.302,-23.254,45.166
0.657,-0.766,0.476,24.597,-36.987,42.053
0.599,-0.704,0.511,22.522,-25.513,41.016
0.579,-0.647,0.589,12.634,-24.597,27.466
0.578,-0.619,0.557,5.005,-16.357,22.827
0.569,-0.613,0.461,-4.639,-3.662,22.827
0.585,-0.621,0.376,-4.639,1.343,18.616
0.591,-0.652,0.348,5.676,8.118,18.127
0.660,-0.659,0.284,5.981,6.592,17.517
0.694,-0.642,0.292,6.104,6.165,15.137
0.727,-0.634,0.300,12.573,14.221,19.226
0.733,-0.605,0.243,16.052,16.052,15.320
0.737,-0.587,0.231,14.160,5.249,9.949
0.773,-0.591,0.260,11.536,-0.732,8.667
0.747,-0.573,0.263,7.812,6.226,7.935
0.753,-0.584,0.248,2.319,4.517,4.517
0.765,-0.608,0.274,3.174,0.916,1.099
0.789,-0.645,0.279,1.709,4.028,5.005
0.766,-0.623,0.268,-0.366,8.057,9.033
0.754,-0.612,0.223,0.244,7.324,6.775
0.765,-0.608,0.215,3.174,3.601,5.188
0.762,-0.600,0.221,2.869,3.723,6.348
0.767,-0.597,0.231,-1.953,1.953,3.906
0.769,-0.605,0.227,-4.028,2.563,4.395
0.763,-0.594,0.208,-2.502,2.075,3.540
0.756,-0.591,0.219,0.610,1.648,2.258
0.760,-0.583,0.254,-1.709,-0.244,0.061
0.766,-0.591,0.240,-4.517,1.038,-0.244
0.767,-0.595,0.224,-4.761,1.282,-0.793
0.779,-0.605,0.227,-4.761,-0.793,-0.977
0.776,-0.602,0.241,-3.601,0.366,0.061
0.772,-0.596,0.245,-5.127,0.732,0.122
0.770,-0.582,0.237,-6.042,1.221,0.244
0.763,-0.582,0.229,-5.981,1.221,-0.549
0.776,-0.593,0.244,-5.798,-0.244,-1.343
0.774,-0.590,0.230,-8.728,0.244,0.183
0.772,-0.594,0.223,-7.629,-0.610,-0.244
0.782,-0.598,0.244,-5.127,0.732,0.244
0.773,-0.591,0.236,-2.991,3.540,2.747
0.770,-0.588,0.226,-2.625,2.991,-0.061
0.774,-0.589,0.241,-4.272,4.089,0.000
0.770,-0.578,0.245,-5.737,4.578,0.671
0.763,-0.577,0.237,-5.005,1.892,-1.770
0.768,-0.582,0.251,-6.409,2.869,-1.282
0.771,-0.593,0.261,-6.531,4.395,-2.380
0.770,-0.588,0.254,-8.240,6.348,0.366
0.758,-0.571,0.238,-8.667,4.761,-2.869
0.772,-0.582,0.246,-8.972,2.930,-4.395
0.781,-0.596,0.233,-8.789,3.296,-4.028
0.781,-0.596,0.223,-8.667,1.038,-2.136
0.783,-0.601,0.228,-7.629,0.549,-1.038
0.781,-0.594,0.231,-4.456,1.648,-0.122
0.779,-0.596,0.245,-3.418,0.793,-0.183
0.772,-0.586,0.237,-3.601,-0.366,1.221
0.765,-0.573,0.243,-1.770,-0.977,0.183
0.770,-0.579,0.256,-1.831,-1.404,-0.427
0.774,-0.587,0.262,-1.709,-1.343,-0.671
0.775,-0.592,0.264,-1.831,-0.366,-0.061
0.774,-0.584,0.254,-2.747,0.305,1.282
0.764,-0.573,0.240,-1.587,0.366,0.549
0.767,-0.578,0.254,-0.366,-0.854,-0.427
0.771,-0.583,0.264,-0.916,-0.671,-0.305

0.770,-0.591,0.260,0.427,-0.305,-0.916
0.768,-0.579,0.264,-0.671,1.099,-0.427
0.761,-0.573,0.249,-0.183,0.793,-1.221
0.765,-0.580,0.258,-0.061,0.854,-1.160
0.752,-0.561,0.265,-0.488,0.549,-3.052
0.763,-0.575,0.266,-5.249,-2.625,-4.272
0.771,-0.595,0.256,-5.371,-2.136,-3.662
0.764,-0.592,0.250,-1.648,0.366,-4.517
0.774,-0.578,0.243,-4.456,-3.479,-4.211
0.790,-0.578,0.223,-9.583,-10.864,-3.235
0.834,-0.589,0.202,-9.033,-19.470,-1.465
0.901,-0.571,0.177,-4.395,-24.170,-0.122
0.988,-0.624,0.159,-2.258,-39.368,5.127
1.013,-0.656,0.188,-18.616,-62.195,16.968
1.025,-0.643,0.202,-32.166,-80.139,29.175
0.981,-0.593,0.242,-12.817,-76.416,38.452
0.939,-0.550,0.317,1.160,-70.984,44.495
0.946,-0.543,0.419,-23.804,-94.238,49.866
0.876,-0.564,0.401,-55.664,-132.019,42.664
0.817,-0.551,0.595,-32.288,-105.347,61.890
0.758,-0.444,0.815,-55.420,-114.868,67.688
0.769,-0.443,0.762,-71.716,-132.996,66.833
0.718,-0.464,0.706,-34.912,-106.628,67.017
0.613,-0.442,0.822,-12.146,-94.971,81.421
0.485,-0.324,0.983,-37.598,-108.093,89.233
0.394,-0.252,1.079,-47.363,-107.605,89.416
0.335,-0.221,1.174,-45.593,-90.149,75.439
0.289,-0.196,1.224,-57.007,-68.054,67.444
0.235,-0.184,1.242,-81.116,-54.565,69.702
0.168,-0.130,1.172,-94.055,-39.734,64.819
0.119,-0.062,1.165,-101.440,-10.620,52.673
0.117,-0.013,1.123,-108.521,18.066,45.288
0.102,0.050,1.063,-108.276,21.545,37.720
0.095,0.071,1.012,-121.216,40.100,28.137
0.100,0.136,0.895,-112.305,59.753,15.198
0.079,0.204,0.791,-105.408,46.875,-7.019
0.074,0.255,0.797,-99.060,49.011,-24.109
0.089,0.297,0.811,-89.233,60.425,-48.645
0.170,0.326,0.653,-76.111,65.613,-64.758
0.158,0.382,0.641,-56.946,72.998,-76.233
0.223,0.343,0.623,-70.129,50.354,-94.727
0.306,0.269,0.614,-79.285,30.640,-106.689
0.351,0.218,0.584,-63.354,42.908,-119.324
0.397,0.111,0.543,-55.054,57.617,-131.775
0.408,-0.036,0.393,-45.654,64.941,-130.859
0.480,0.015,0.417,-49.072,43.579,-131.653
0.573,0.007,0.318,-49.011,58.777,-140.930
0.589,-0.079,0.147,-26.611,74.158,-133.240
0.610,-0.146,-0.029,4.578,71.838,-127.075
0.645,-0.238,-0.084,18.677,51.086,-134.583
0.753,-0.281,-0.132,16.113,29.724,-139.282
0.771,-0.349,-0.082,28.137,-0.061,-115.662
0.782,-0.356,0.049,44.800,-21.545,-105.225
0.815,-0.376,0.028,49.622,-28.870,-108.826
0.755,-0.457,0.027,47.729,-35.461,-105.652
0.794,-0.478,-0.013,57.251,-49.988,-120.728
0.832,-0.660,0.039,68.481,-67.505,-109.558
0.833,-0.769,0.153,101.501,-53.711,-99.670
0.921,-0.795,0.182,107.727,-49.011,-92.834
0.862,-0.958,0.135,96.802,-55.847,-76.294
0.932,-1.000,0.147,113.281,-63.538,-60.547
0.951,-1.093,0.291,119.263,-69.580,-41.809
0.939,-1.100,0.287,122.803,-48.218,-15.625
0.915,-1.047,0.318,115.479,-59.021,-0.854
0.894,-1.016,0.394,100.342,-76.660,14.465
0.792,-0.948,0.399,96.741,-57.312,19.897
0.724,-0.942,0.470,80.322,-31.860,26.123
0.772,-0.968,0.584,71.472,-44.128,26.978
0.706,-0.909,0.604,54.016,-23.499,36.926
0.627,-0.814,0.557,31.921,-21.851,35.645
0.607,-0.762,0.582,9.399,-33.875,32.898
0.591,-0.738,0.535,7.751,-20.386,28.748
0.565,-0.727,0.488,6.531,-9.766,30.762
0.570,-0.750,0.460,2.869,-5.371,27.527
0.622,-0.761,0.395,8.240,5.920,23.376
0.615,-0.743,0.319,3.967,16.724,29.907
0.659,-0.734,0.313,-2.808,11.658,27.222
0.680,-0.681,0.290,-4.395,13.611,28.625
0.679,-0.634,0.231,-4.822,19.409,29.602
0.709,-0.598,0.225,-1.892,16.724,26.123
0.707,-0.575,0.240,1.648,18.005,25.757
0.698,-0.581,0.238,-0.671,13.550,14.465
0.729,-0.614,0.201,-1.770,10.071,7.935
0.751,-0.648,0.161,1.709,9.277,7.812
0.773,-0.656,0.140,5.005,4.944,11.230
0.755,-0.610,0.153,6.653,3.967,18.982
0.759,-0.605,0.163,5.310,1.038,10.010
0.758,-0.589,0.163,5.615,1.770,7.202
0.755,-0.577,0.170,4.639,-2.380,3.357
0.747,-0.565,0.193,3.052,-3.845,-0.610
0.762,-0.582,0.221,0.854,-2.136,-2.625
0.774,-0.605,0.201,-1.343,-0.671,-2.808
0.795,-0.639,0.175,0.122,0.122,-1.160
0.807,-0.650,0.179,2.319,-1.160,1.648
0.790,-0.619,0.188,3.540,-0.916,6.104
0.768,-0.594,0.184,0.732,-0.549,4.700
0.774,-0.609,0.186,-1.953,-3.479,2.625
0.760,-0.592,0.185,-0.977,-1.526,2.197
0.765,-0.596,0.180,-3.845,-3.540,0.305
0.768,-0.599,0.191,-5.188,-5.310,0.183
0.771,-0.599,0.209,-5.127,-4.761,1.526
0.776,-0.606,0.203,-5.737,-4.211,0.671
0.768,-0.601,0.205,-3.906,-2.075,1.892
0.772,-0.599,0.218,-3.906,-1.831,3.418
0.774,-0.596,0.214,-4.700,0.244,1.282
0.771,-0.597,0.202,-4.333,-0.122,0.732
0.771,-0.597,0.205,-5.066,-1.099,0.488
0.778,-0.599,0.211,-6.897,-1.099,2.991
0.786,-0.606,0.227,-6.958,-2.625,0.427
0.782,-0.598,0.216,-8.972,-2.197,2.991
0.781,-0.598,0.211,-9.155,-4.944,1.892
0.787,-0.597,0.220,-5.798,-2.808,1.587
0.780,-0.589,0.221,-5.127,-1.160,3.967
0.769,-0.585,0.227,-4.883,-2.869,1.221
0.779,-0.579,0.242,-5.066,-2.625,1.587
0.778,-0.580,0.248,-4.944,-1.953,2.014
0.776,-0.572,0.240,-6.226,-0.427,3.296
0.775,-0.576,0.242,-6.897,-2.563,1.343
0.784,-0.577,0.251,-8.484,-3.113,1.404
0.782,-0.584,0.235,-7.751,-1.038,2.441
0.779,-0.572,0.234,-5.737,-1.221,1.587
0.779,-0.560,0.245,-5.615,-1.892,2.502
0.781,-0.566,0.242,-7.690,-3.906,0.427
0.787,-0.580,0.251,-10.742,-4.883,2.380
0.783,-0.561,0.253,-9.033,-5.981,1.892

0.848,-0.299,0.712,7.202,-45.654,25.574
0.823,-0.325,0.683,-1.282,-40.039,25.208
0.823,-0.385,0.700,-4.333,-36.865,27.954
0.818,-0.408,0.743,-10.681,-31.372,35.889
0.806,-0.345,0.688,-15.747,-24.536,42.236
0.727,-0.292,0.623,-15.808,-21.729,36.682
0.679,-0.228,0.604,-8.118,-30.701,39.246
0.663,-0.168,0.712,-11.841,-39.246,32.593
0.706,-0.175,0.830,-19.470,-38.818,32.410
0.709,-0.172,0.821,-23.315,-23.132,38.025
0.699,-0.183,0.804,-21.790,-31.555,30.701
0.732,-0.220,0.838,-36.011,-29.541,48.767
0.718,-0.127,0.865,-41.687,-37.903,60.242
0.619,-0.064,0.877,-44.250,-42.725,43.091
0.596,-0.026,0.907,-38.574,-29.846,40.405
0.553,0.021,0.945,-53.528,-28.320,39.063
0.526,0.048,0.862,-59.143,-29.175,38.269
0.469,0.068,0.931,-59.387,-28.870,29.297
0.496,0.024,0.901,-62.012,-16.418,22.461
0.493,0.034,0.899,-61.707,-4.944,20.081
0.493,0.079,0.897,-63.904,6.042,18.433
0.470,0.142,0.893,-69.885,8.240,18.433
0.453,0.166,0.859,-68.176,23.376,14.893
0.468,0.196,0.802,-65.613,39.063,8.667
0.457,0.241,0.794,-68.237,33.508,3.662
0.454,0.263,0.718,-71.777,29.175,0.000
0.421,0.291,0.677,-67.200,40.527,-9.216
0.450,0.313,0.651,-63.049,47.913,-22.705
0.476,0.313,0.608,-64.392,49.255,-30.396
0.485,0.318,0.580,-61.157,57.373,-36.804
0.535,0.345,0.511,-58.899,69.641,-45.471
0.575,0.330,0.452,-52.124,70.251,-50.598
0.615,0.314,0.402,-39.612,75.806,-61.707
0.663,0.288,0.318,-38.757,66.895,-63.416
0.705,0.261,0.294,-31.128,56.519,-59.387
0.770,0.219,0.330,-21.118,56.641,-55.664
0.785,0.213,0.327,-20.264,56.274,-57.251
0.813,0.193,0.261,-17.822,59.692,-55.969
0.816,0.182,0.258,-15.076,65.979,-61.646
0.878,0.174,0.139,-12.756,57.129,-55.603
0.906,0.145,0.204,-21.301,32.715,-47.791
0.911,0.135,0.176,-20.142,44.006,-50.415
0.881,0.102,0.067,-13.306,40.527,-55.969
0.919,0.088,0.102,-19.836,24.292,-56.091
0.922,0.044,0.072,-25.513,17.151,-55.664
0.890,0.009,0.027,-18.860,16.418,-53.223
0.906,0.007,0.024,-20.020,1.831,-57.800
0.882,-0.012,0.033,-16.235,-8.972,-65.002
0.884,-0.021,0.044,-13.367,-20.874,-72.388
0.907,-0.096,0.157,-7.629,-32.654,-75.989
0.929,-0.131,0.133,-1.343,-15.747,-70.313
0.811,-0.197,-0.039,-9.521,-16.907,-56.824
0.804,-0.213,0.066,-0.427,-44.495,-66.589
0.863,-0.229,0.131,11.658,-52.795,-85.693
0.825,-0.326,0.185,12.451,-52.185,-85.754
0.878,-0.387,0.274,17.578,-56.763,-87.158
0.924,-0.448,0.290,27.710,-47.302,-85.205
0.881,-0.486,0.330,22.522,-45.227,-73.120
0.905,-0.511,0.336,25.269,-43.152,-72.021
0.909,-0.598,0.264,31.677,-39.734,-66.772
0.869,-0.638,0.236,26.917,-47.424,-56.946
0.862,-0.631,0.286,34.424,-67.200,-54.504
0.882,-0.710,0.466,42.419,-67.627,-55.603
0.836,-0.725,0.423,35.156,-50.964,-37.598
0.773,-0.679,0.330,33.813,-64.697,-27.832
0.736,-0.679,0.465,48.401,-71.777,-35.522
0.731,-0.716,0.401,40.222,-61.951,-25.208
0.674,-0.707,0.353,32.898,-78.491,-10.132
0.637,-0.722,0.478,42.542,-88.196,-16.296
0.672,-0.768,0.561,43.701,-86.853,-14.343
0.655,-0.793,0.571,35.095,-77.271,-0.122
0.619,-0.786,0.536,31.799,-71.350,9.705
0.601,-0.786,0.616,36.377,-76.599,13.123
0.603,-0.796,0.641,35.278,-74.036,14.587
0.573,-0.768,0.575,22.034,-43.396,24.658
0.556,-0.771,0.661,20.447,-59.753,27.710
0.581,-0.771,0.694,25.330,-48.889,32.959
0.550,-0.770,0.612,19.714,-35.156,41.199
0.508,-0.757,0.615,22.705,-35.767,43.823
0.528,-0.731,0.625,23.010,-30.518,35.828
0.511,-0.711,0.581,15.259,-25.513,41.321
0.494,-0.688,0.596,14.221,-20.691,42.480
0.503,-0.659,0.600,17.090,-15.808,38.696
0.510,-0.653,0.648,12.756,-18.799,37.354
0.541,-0.676,0.655,10.315,-9.949,38.208
0.542,-0.680,0.667,9.033,0.732,40.955
0.538,-0.654,0.668,2.380,2.075,39.246
0.544,-0.630,0.627,-5.981,-0.793,38.391
0.552,-0.620,0.610,-8.728,2.380,35.217
0.579,-0.624,0.635,-10.315,8.911,37.231
0.559,-0.602,0.614,-19.653,3.540,38.574
0.580,-0.597,0.590,-22.156,3.845,37.415
0.567,-0.534,0.613,-19.775,10.010,36.926
0.599,-0.489,0.590,-27.893,9.033,41.748
0.615,-0.498,0.552,-28.809,10.315,45.044
0.620,-0.476,0.562,-21.667,11.841,41.199
0.669,-0.479,0.564,-22.461,15.259,39.673
0.715,-0.497,0.518,-20.752,24.536,54.138
0.745,-0.500,0.547,-17.639,20.691,54.932
0.747,-0.442,0.567,-14.526,30.762,58.960
0.746,-0.390,0.540,-17.029,26.062,57.556
0.738,-0.349,0.508,-15.320,18.494,53.772
0.752,-0.315,0.532,-14.648,10.376,46.265
0.764,-0.291,0.500,-12.268,13.367,45.593
0.758,-0.272,0.473,-11.841,11.780,41.443
0.771,-0.231,0.473,-14.160,2.991,37.231
0.764,-0.204,0.481,-12.573,1.038,36.316
0.778,-0.180,0.468,-9.888,5.859,34.973
0.748,-0.147,0.415,-8.423,6.592,30.579
0.743,-0.102,0.404,-3.357,-2.197,22.705
0.748,-0.066,0.456,4.395,-8.667,12.695
0.730,-0.054,0.480,5.127,-15.381,5.859
0.741,-0.063,0.500,8.484,-17.395,-0.977
0.771,-0.097,0.528,11.841,-9.705,-5.005
0.781,-0.119,0.569,8.606,-9.766,-8.789
0.807,-0.162,0.589,5.493,-9.766,-12.634
0.842,-0.205,0.575,8.057,-3.540,-9.338
0.838,-0.224,0.559,7.324,-1.221,-6.287
0.814,-0.208,0.540,7.690,-1.404,-3.723
0.807,-0.189,0.524,9.583,-5.798,-6.165
0.815,-0.198,0.549,8.301,-11.475,-7.385
0.821,-0.199,0.587,3.418,-4.883,-5.676
0.816,-0.193,0.572,1.465,-3.723,-7.202
0.820,-0.212,0.592,1.038,-6.836,-7.507
0.833,-0.224,0.595,2.136,-4.578,-8.118

0.785,-0.265,0.582,2.808,-2.136,-5.737
0.773,-0.271,0.602,1.953,-1.404,-2.380
0.779,-0.267,0.593,0.549,-1.038,-3.784
0.769,-0.260,0.581,0.977,-0.061,-2.808
0.772,-0.268,0.574,1.770,-0.793,-3.418
0.773,-0.276,0.586,2.075,-2.136,-3.479
0.779,-0.282,0.585,2.075,-2.441,-4.761
0.781,-0.285,0.590,1.160,-2.991,-3.296
0.765,-0.280,0.591,2.197,-1.282,-2.075
0.757,-0.272,0.586,1.404,-1.465,-2.808
0.749,-0.272,0.580,1.709,-3.235,-3.845
0.752,-0.284,0.587,2.441,-3.418,-5.310
0.746,-0.273,0.582,2.197,-3.235,-3.784
0.744,-0.281,0.579,3.113,-5.859,-6.836
0.746,-0.290,0.588,3.540,-5.005,-9.644
0.752,-0.285,0.565,4.211,-4.639,-8.118
0.759,-0.294,0.562,6.592,-6.714,-9.277
0.766,-0.306,0.556,7.019,-7.874,-11.169
0.792,-0.316,0.533,9.216,-9.949,-7.629
0.816,-0.324,0.533,14.038,-14.954,-5.066
0.846,-0.332,0.561,16.052,-21.301,-0.916
0.882,-0.332,0.570,15.259,-26.489,1.282
0.917,-0.381,0.609,13.733,-38.208,6.226
0.919,-0.394,0.674,12.512,-41.931,13.000
0.864,-0.365,0.754,6.348,-48.828,22.705
0.828,-0.340,0.928,-4.883,-61.218,30.762
0.805,-0.321,0.995,-18.799,-48.950,37.903
0.765,-0.325,0.959,-29.907,-41.870,42.297
0.727,-0.310,0.922,-36.621,-44.067,41.016
0.677,-0.296,1.000,-46.021,-49.133,41.077
0.658,-0.293,0.980,-62.927,-42.969,43.945
0.591,-0.225,0.956,-78.918,-47.791,41.748
0.542,-0.182,1.032,-80.994,-31.006,42.542
0.513,-0.121,1.084,-86.487,-12.085,37.231
0.486,-0.077,1.006,-103.516,-4.333,36.865
0.436,0.002,0.988,-110.657,4.150,33.386
0.417,0.054,0.957,-112.732,17.822,26.428
0.380,0.109,0.896,-113.831,30.579,20.020
0.355,0.152,0.811,-105.286,47.607,11.292
0.372,0.185,0.743,-88.867,59.753,-2.136
0.383,0.206,0.735,-84.229,59.082,-12.085
0.421,0.211,0.696,-80.688,65.308,-22.278
0.439,0.245,0.583,-69.641,88.135,-35.461
0.452,0.281,0.519,-57.129,81.482,-42.847
0.491,0.244,0.551,-55.725,86.731,-54.382
0.541,0.206,0.444,-41.870,114.868,-54.321
0.522,0.213,0.291,-25.085,123.596,-58.167
0.576,0.214,0.258,-22.644,107.483,-64.392
0.661,0.197,0.229,-9.705,108.093,-79.712
0.659,0.176,0.155,2.502,112.244,-71.228
0.669,0.170,0.120,-15.442,71.899,-68.115
0.726,0.144,0.097,-27.222,56.152,-77.332
0.733,0.091,0.004,-28.687,48.706,-86.304
0.703,0.057,-0.015,-39.551,14.343,-85.388
0.726,0.059,-0.019,-50.598,-17.578,-93.872
0.713,-0.031,-0.004,-37.109,-24.963,-117.493
0.811,-0.171,0.076,-19.287,-42.847,-127.747
0.798,-0.198,0.057,-28.442,-49.072,-109.680
0.746,-0.239,0.063,-25.269,-52.063,-109.131
0.719,-0.340,0.087,-3.967,-49.011,-139.954
0.772,-0.483,0.107,2.136,-56.702,-151.428
0.776,-0.568,0.125,7.629,-59.631,-130.310
0.742,-0.606,0.110,13.428,-57.739,-125.000
0.706,-0.680,0.188,19.958,-67.932,-135.132
0.756,-0.806,0.249,25.024,-64.331,-133.240
0.794,-0.917,0.326,33.081,-62.561,-107.178
0.737,-0.996,0.397,34.180,-57.190,-96.924
0.742,-1.025,0.362,33.203,-50.598,-78.003
0.653,-1.007,0.341,31.616,-53.345,-54.565
0.615,-0.966,0.327,37.720,-67.017,-56.824
0.595,-0.997,0.341,34.058,-79.407,-44.983
0.574,-1.001,0.366,31.189,-82.520,-32.288
0.502,-0.971,0.410,32.227,-87.891,-18.372
0.526,-1.019,0.554,29.785,-86.487,-14.709
0.537,-1.026,0.551,26.550,-76.721,-1.160
0.477,-0.954,0.431,17.395,-69.824,18.066
0.393,-0.864,0.319,0.488,-78.857,28.381
0.365,-0.891,0.450,1.831,-104.370,26.489
0.436,-0.937,0.616,12.024,-114.136,27.954
0.418,-0.969,0.664,8.972,-104.736,44.678
0.393,-0.887,0.686,-10.986,-68.970,62.195
0.379,-0.819,0.578,-6.531,-56.580,60.425
0.333,-0.787,0.585,3.357,-55.115,62.744
0.321,-0.786,0.693,11.414,-56.641,61.523
0.343,-0.769,0.715,7.507,-52.917,50.964
0.363,-0.756,0.741,3.601,-46.631,54.199
0.334,-0.770,0.776,3.235,-37.842,56.885
0.359,-0.805,0.810,1.343,-33.997,53.101
0.382,-0.818,0.799,-1.526,-20.447,55.176
0.379,-0.791,0.816,-2.808,-8.484,62.012
0.371,-0.758,0.836,-8.545,3.601,64.636
0.381,-0.681,0.833,-11.658,15.564,63.538
0.393,-0.662,0.795,-16.602,24.902,61.951
0.428,-0.686,0.757,-26.062,21.606,53.711
0.455,-0.659,0.714,-30.945,22.461,53.833
0.513,-0.684,0.640,-34.973,31.372,56.213
0.520,-0.681,0.587,-32.532,36.560,61.035
0.583,-0.693,0.598,-28.992,28.625,59.021
0.679,-0.711,0.586,-23.987,39.917,75.317
0.631,-0.612,0.512,-22.461,47.363,86.670
0.610,-0.519,0.459,-21.301,28.015,80.139
0.614,-0.448,0.469,-14.709,21.118,74.951
0.597,-0.374,0.474,-11.963,18.860,69.214
0.589,-0.305,0.473,-10.193,10.742,61.035
0.588,-0.273,0.481,-10.742,0.305,49.011
0.589,-0.225,0.476,-9.705,-4.578,41.504
0.589,-0.187,0.484,-7.874,-9.216,32.654
0.596,-0.176,0.515,-5.127,-13.550,24.780
0.599,-0.147,0.512,-6.104,-13.489,16.724
0.607,-0.146,0.515,-6.836,-20.142,7.385
0.642,-0.160,0.551,-7.385,-25.452,-2.014
0.670,-0.188,0.586,-3.967,-21.301,-5.310
0.680,-0.192,0.591,0.000,-14.404,-7.629
0.703,-0.202,0.611,4.517,-14.771,-12.329
0.737,-0.242,0.640,10.681,-10.803,-15.381
0.758,-0.285,0.650,12.878,-2.930,-14.221
0.761,-0.297,0.653,9.033,-2.686,-11.414
0.761,-0.304,0.660,7.141,-4.150,-11.475
0.756,-0.318,0.649,7.202,-2.258,-9.766
0.757,-0.328,0.675,6.531,-2.258,-9.155
0.755,-0.330,0.667,5.310,4.150,-5.615
0.736,-0.328,0.642,2.441,1.648,-5.005
0.742,-0.325,0.649,-0.549,-1.465,-4.517
0.731,-0.322,0.655,-0.488,1.221,-3.418
0.729,-0.319,0.645,0.244,1.892,-3.540

0.803,-0.252,0.458,-22.400,11.719,-22.827
0.840,-0.251,0.446,-18.188,11.841,-24.780
0.850,-0.260,0.453,-13.245,12.268,-23.621
0.864,-0.263,0.446,-10.986,12.573,-24.719
0.888,-0.283,0.398,-11.963,13.611,-24.902
0.886,-0.309,0.411,-9.521,6.714,-21.240
0.876,-0.319,0.462,-3.967,6.226,-18.555
0.875,-0.317,0.471,-4.517,7.080,-16.296
0.857,-0.319,0.459,-4.456,7.202,-13.550
0.846,-0.327,0.460,-1.953,4.761,-10.254
0.836,-0.315,0.464,-1.160,3.357,-10.315
0.835,-0.318,0.447,-2.502,3.784,-11.719
0.837,-0.336,0.416,-3.052,-0.366,-10.986
0.835,-0.359,0.434,2.136,-3.967,-10.803
0.832,-0.364,0.462,5.310,-6.470,-9.521
0.834,-0.346,0.471,3.967,-6.897,-8.118
0.832,-0.341,0.460,8.423,-10.742,-7.874
0.851,-0.345,0.469,11.292,-15.442,-8.911
0.893,-0.362,0.453,13.855,-21.912,-6.226
0.939,-0.377,0.440,14.526,-29.053,-1.465
0.973,-0.404,0.440,11.536,-44.983,0.122
1.025,-0.461,0.501,8.972,-63.477,7.690
1.047,-0.480,0.583,4.211,-66.345,18.372
1.009,-0.473,0.607,2.380,-70.374,32.959
0.955,-0.452,0.681,5.249,-78.125,42.480
0.903,-0.423,0.822,1.953,-81.116,47.668
0.838,-0.422,0.894,-9.094,-77.881,55.786
0.792,-0.445,0.920,-26.184,-77.454,58.838
0.749,-0.417,0.907,-42.175,-68.054,64.758
0.653,-0.317,0.826,-51.270,-53.589,73.608
0.540,-0.216,0.835,-51.086,-44.983,75.439
0.475,-0.148,0.955,-57.190,-37.292,68.970
0.462,-0.173,0.987,-71.655,-25.696,64.331
0.420,-0.142,1.024,-84.717,-10.803,57.312
0.386,-0.035,0.987,-95.154,9.155,52.063
0.284,0.119,0.943,-90.576,41.931,50.171
0.259,0.206,0.867,-84.839,68.176,29.419
0.275,0.219,0.827,-90.027,67.322,15.808
0.315,0.223,0.734,-90.515,78.918,-2.563
0.325,0.245,0.638,-84.412,87.158,-15.686
0.352,0.251,0.543,-70.190,90.088,-32.227
0.377,0.260,0.482,-58.228,89.661,-50.110
0.432,0.228,0.486,-41.870,90.088,-65.979
0.487,0.163,0.436,-25.696,102.905,-70.007
0.508,0.187,0.271,-4.456,121.155,-78.979
0.523,0.197,0.203,-4.272,101.379,-89.233
0.612,0.105,0.165,-19.714,65.247,-100.098
0.664,-0.011,0.229,-23.376,47.180,-96.863
0.665,-0.013,0.172,-24.353,43.884,-90.881
0.668,-0.006,0.145,-34.180,18.616,-95.825
0.661,-0.119,0.183,-49.805,-4.150,-113.342
0.696,-0.123,0.152,-40.466,-15.503,-143.372
0.685,-0.219,0.163,-34.729,-22.766,-148.499
0.731,-0.381,0.146,-38.757,-41.321,-145.874
0.804,-0.453,0.115,-14.954,-45.776,-129.578
0.716,-0.491,0.091,-4.150,-50.171,-129.944
0.660,-0.509,0.074,-10.315,-70.740,-137.695
0.692,-0.713,0.241,-6.042,-100.525,-147.888
0.824,-0.893,0.314,33.875,-91.064,-138.367
0.756,-0.880,0.311,49.438,-73.608,-107.117
0.645,-0.966,0.304,31.555,-108.582,-94.299
0.653,-1.013,0.320,50.476,-114.319,-84.290
0.599,-1.050,0.417,55.786,-118.652,-67.505
0.520,-1.067,0.498,53.955,-140.381,-52.429
0.552,-1.139,0.536,52.429,-133.972,-32.898
0.458,-1.099,0.676,51.025,-131.226,5.493
0.392,-1.048,0.639,45.471,-108.948,16.357
0.453,-1.151,0.711,32.166,-110.413,45.349
0.394,-1.070,0.816,33.630,-92.957,81.848
0.371,-0.926,0.653,17.334,-29.480,80.017
0.321,-0.862,0.573,12.634,-54.810,78.979
0.380,-0.888,0.686,26.367,-64.819,72.571
0.380,-0.811,0.694,36.804,-41.504,74.158
0.362,-0.815,0.577,15.686,-40.894,64.697
0.362,-0.852,0.691,21.545,-62.805,69.641
0.453,-0.852,0.823,34.912,-39.978,70.190
0.408,-0.802,0.852,23.987,-29.236,77.271
0.446,-0.769,0.889,3.967,-26.733,75.928
0.470,-0.797,0.831,-13.733,-8.789,78.491
0.497,-0.795,0.716,-21.729,-7.263,82.764
0.471,-0.748,0.664,-21.179,-9.460,83.679
0.409,-0.670,0.702,-22.766,-27.771,69.092
0.430,-0.591,0.702,-28.687,-25.757,51.514
0.357,-0.514,0.808,-23.865,-20.203,35.828
0.462,-0.552,0.758,-36.560,-15.381,22.827
0.584,-0.706,0.669,-36.316,-8.240,36.865
0.558,-0.719,0.586,-34.973,3.296,60.852
0.569,-0.660,0.667,-33.691,-3.540,65.674
0.645,-0.620,0.666,-34.729,3.601,65.308
0.610,-0.600,0.702,-48.889,-6.470,75.378
0.580,-0.515,0.774,-51.636,-13.123,77.576
0.524,-0.426,0.864,-53.040,-17.761,73.486
0.493,-0.374,0.923,-62.134,-16.663,66.956
0.449,-0.335,0.992,-73.120,-8.667,57.312
0.432,-0.281,0.970,-84.290,17.456,48.767
0.425,-0.213,0.830,-88.989,33.325,54.382
0.389,-0.163,0.750,-85.388,41.260,46.631
0.409,-0.141,0.688,-77.209,54.199,40.222
0.423,-0.104,0.655,-78.247,61.096,36.255
0.439,-0.053,0.560,-81.604,57.922,27.100
0.441,0.032,0.532,-67.749,59.204,13.367
0.511,0.089,0.514,-57.922,55.725,-1.465
0.543,0.128,0.507,-55.359,50.293,-8.118
0.578,0.156,0.459,-51.147,47.058,-18.372
0.620,0.148,0.428,-41.016,47.180,-30.090
0.668,0.109,0.358,-37.659,44.250,-39.795
0.703,0.105,0.351,-32.593,38.452,-41.077
0.687,0.081,0.306,-23.560,35.706,-43.396
0.725,0.100,0.297,-16.663,28.625,-58.044
0.820,0.035,0.316,-15.442,16.113,-66.040
0.778,-0.061,0.380,-10.681,17.639,-54.199
0.820,-0.043,0.318,-4.639,20.203,-62.195
0.880,-0.088,0.170,2.136,18.738,-73.608
0.816,-0.182,0.137,16.479,11.658,-69.031
0.881,-0.166,0.282,30.029,-5.371,-71.960
0.968,-0.212,0.363,24.353,-11.169,-77.881
0.868,-0.305,0.362,12.634,-11.108,-62.317
0.853,-0.284,0.395,21.851,-5.798,-59.937
0.966,-0.289,0.399,34.058,-6.042,-67.749
0.933,-0.382,0.416,33.997,-4.883,-57.495
0.959,-0.392,0.409,33.630,2.625,-52.124
0.947,-0.434,0.425,30.029,-4.395,-44.983
0.918,-0.495,0.456,35.461,-0.488,-41.199
0.961,-0.500,0.510,36.194,8.362,-39.063
0.982,-0.514,0.448,23.254,14.832,-27.222

0.805,-0.486,0.346,-1.404,1.282,-3.052
0.818,-0.496,0.354,-2.686,2.258,-3.418
0.824,-0.507,0.352,-2.869,1.892,-3.662
0.816,-0.494,0.344,-5.554,2.502,-1.831
0.796,-0.489,0.319,-6.470,3.235,-1.160
0.797,-0.490,0.326,-3.967,1.221,-3.784
0.805,-0.493,0.340,-4.272,1.587,-4.517
0.793,-0.487,0.333,-5.127,2.686,-3.357
0.793,-0.490,0.336,-4.639,1.038,-7.874
0.801,-0.501,0.347,-7.568,-1.282,-6.836
0.781,-0.489,0.338,-9.460,-0.977,-7.324
0.765,-0.488,0.355,-11.963,-2.197,-10.254
0.762,-0.474,0.323,-20.264,-7.019,-12.268
0.740,-0.452,0.296,-21.606,-10.742,-16.602
0.701,-0.422,0.281,-20.874,-15.686,-21.667
0.657,-0.365,0.282,-19.470,-26.001,-34.424
0.625,-0.351,0.266,-27.527,-44.434,-54.321
0.636,-0.422,0.169,-32.959,-75.928,-71.472
0.750,-0.558,0.048,-11.169,-87.341,-75.562
0.806,-0.651,-0.001,24.292,-86.487,-46.082
0.714,-0.709,0.043,51.208,-107.605,-16.418
0.687,-0.892,0.373,68.054,-145.203,-6.897
0.797,-1.042,0.646,50.537,-134.644,3.967
0.836,-1.074,0.705,31.128,-107.117,39.978
0.708,-0.954,0.654,29.846,-77.271,69.397
0.616,-0.829,0.602,25.085,-73.303,77.698
0.561,-0.795,0.649,9.949,-87.769,81.909
0.533,-0.760,0.741,-4.761,-84.412,77.454
0.503,-0.686,0.722,-14.954,-75.928,80.139
0.411,-0.599,0.830,-28.748,-82.092,77.759
0.457,-0.509,0.894,-52.612,-94.116,65.979
0.478,-0.535,0.858,-65.369,-115.051,65.735
0.458,-0.527,0.966,-46.509,-103.760,72.754
0.411,-0.456,0.990,-48.584,-86.609,68.665
0.381,-0.410,0.993,-64.453,-93.567,71.167
0.251,-0.368,1.088,-56.946,-83.374,77.026
0.252,-0.446,1.138,-70.068,-80.078,59.692
0.185,-0.444,1.250,-83.069,-84.778,62.866
0.080,-0.322,1.331,-76.416,-36.682,59.998
0.021,-0.232,1.237,-92.224,-14.526,61.890
-0.082,-0.128,1.201,-104.553,-2.808,59.265
-0.080,-0.066,1.171,-99.243,24.475,37.537
-0.052,-0.044,1.144,-110.535,37.415,27.527
-0.030,0.012,1.081,-113.586,51.697,23.010
0.023,0.067,0.939,-120.361,49.377,7.812
0.070,0.171,0.874,-109.802,52.856,-3.662
0.043,0.245,0.895,-103.027,20.752,-15.015
0.080,0.279,0.833,-96.130,37.476,-34.424
0.120,0.265,0.708,-97.412,31.494,-41.077
0.116,0.301,0.699,-87.280,20.264,-50.537
0.110,0.312,0.739,-76.721,20.630,-67.200
0.110,0.299,0.729,-63.354,29.602,-80.750
0.171,0.268,0.626,-57.312,32.349,-88.440
0.199,0.231,0.566,-44.922,34.668,-89.722
0.252,0.235,0.514,-32.410,39.490,-93.689
0.280,0.249,0.505,-36.682,38.452,-102.722
0.278,0.144,0.401,-36.560,32.837,-100.708
0.396,0.145,0.307,-25.513,26.672,-102.905
0.483,0.079,0.260,-7.446,19.409,-111.267
0.473,0.026,0.333,2.991,0.854,-108.093
0.633,-0.019,0.333,7.202,-8.606,-116.028
0.695,-0.124,0.274,14.832,-11.597,-104.919
0.625,-0.140,0.392,31.250,-21.362,-87.158
0.660,-0.159,0.468,38.330,-35.217,-102.783
0.776,-0.281,0.478,44.983,-44.617,-110.596
0.768,-0.342,0.586,61.707,-38.940,-90.515
0.810,-0.383,0.544,62.439,-29.785,-84.778
0.836,-0.482,0.430,55.176,-40.527,-74.890
0.802,-0.569,0.617,71.533,-62.317,-55.969
0.855,-0.556,0.813,94.543,-57.861,-51.025
0.838,-0.656,0.691,73.730,-40.588,-37.109
0.732,-0.666,0.741,69.153,-54.443,-16.296
0.729,-0.651,0.944,95.337,-55.786,-17.334
0.755,-0.672,0.927,84.778,-30.518,-6.470
0.716,-0.627,0.811,61.401,-67.688,16.907
0.652,-0.650,0.797,78.186,-31.677,12.085
0.645,-0.654,0.978,70.007,-47.424,25.452
0.638,-0.665,0.886,43.091,-34.546,28.809
0.564,-0.636,0.784,30.212,-42.664,47.729
0.465,-0.593,0.853,55.969,-36.133,43.030
0.488,-0.574,0.898,46.936,-36.194,44.312
0.438,-0.583,0.897,28.625,-37.231,49.988
0.416,-0.560,0.947,30.273,-28.015,47.729
0.422,-0.548,0.903,28.076,-13.550,44.617
0.419,-0.537,0.868,14.709,-30.823,47.302
0.367,-0.524,0.896,4.150,-34.790,54.871
0.349,-0.516,0.951,14.221,-12.939,48.645
0.379,-0.520,0.913,4.944,-7.446,44.617
0.386,-0.493,0.888,-7.019,-6.775,48.096
0.407,-0.495,0.881,-13.184,-3.479,44.861
0.399,-0.472,0.866,-9.521,7.263,41.748
0.371,-0.417,0.816,-9.766,-0.610,35.828
0.379,-0.406,0.789,-10.254,0.977,26.550
0.390,-0.405,0.796,-13.123,-0.244,18.982
0.383,-0.379,0.812,-8.850,-0.854,16.052
0.401,-0.372,0.777,-13.000,4.517,9.277
0.411,-0.364,0.753,-9.521,7.812,5.493
0.436,-0.366,0.713,-6.226,8.484,1.831
0.467,-0.378,0.718,-0.061,11.047,-1.648
0.472,-0.378,0.731,-0.427,6.287,-5.127
0.510,-0.403,0.750,-5.981,3.052,-8.484
0.536,-0.414,0.760,-2.258,2.563,-6.165
0.534,-0.413,0.736,-1.526,7.996,-6.836
0.548,-0.413,0.704,0.549,6.104,-5.798
0.519,-0.403,0.671,4.456,5.981,-5.249
0.551,-0.444,0.705,5.310,-13.977,1.709
0.539,-0.422,0.740,2.014,-15.320,2.686
0.536,-0.413,0.743,9.033,5.615,-4.028
0.528,-0.414,0.770,7.568,9.583,-6.226
0.527,-0.422,0.791,0.366,5.554,-5.371
0.524,-0.427,0.781,-1.831,7.568,-4.456
0.521,-0.426,0.783,-0.122,11.169,-6.287
0.528,-0.424,0.754,-2.869,9.460,-5.432
0.536,-0.433,0.724,-2.563,7.324,-5.676
0.543,-0.442,0.736,-0.366,5.371,-5.310
0.548,-0.446,0.746,-2.258,3.723,-2.258
0.539,-0.448,0.727,-1.526,5.554,-2.747
0.547,-0.443,0.739,1.160,4.333,-3.113
0.543,-0.439,0.729,0.000,3.784,-1.770
0.539,-0.435,0.729,-0.977,4.272,-1.648
0.531,-0.432,0.726,-0.488,4.517,-1.099
0.533,-0.434,0.717,-1.282,4.639,-2.380
0.534,-0.428,0.712,0.854,5.798,-2.625
0.537,-0.435,0.706,-0.916,5.005,-2.197
0.538,-0.437,0.702,1.404,6.287,-2.014

0.659,-0.112,0.528,-17.212,-2.930,8.606
0.662,-0.096,0.542,-15.137,-0.305,5.432
0.689,-0.101,0.542,-7.385,-0.671,0.366
0.716,-0.113,0.568,-1.770,-0.427,-1.465
0.743,-0.090,0.597,-3.052,3.052,-1.648
0.757,-0.069,0.590,-2.502,4.272,-3.662
0.775,-0.086,0.619,-1.038,-0.732,-5.615
0.816,-0.107,0.665,-2.075,-3.052,-2.686
0.816,-0.115,0.640,-4.700,2.014,0.427
0.812,-0.117,0.644,-3.662,8.789,-0.305
0.818,-0.109,0.654,-3.418,7.324,0.977
0.796,-0.101,0.641,-8.606,5.371,3.296
0.759,-0.073,0.616,-10.193,5.310,4.639
0.731,-0.057,0.579,-11.841,-1.526,-0.061
0.705,-0.062,0.524,-8.972,-9.460,-2.869
0.683,-0.052,0.425,-5.249,-11.169,-6.531
0.644,-0.042,0.329,-1.160,-21.729,-10.010
0.640,-0.044,0.320,8.423,-35.583,-19.836
0.696,-0.113,0.373,22.461,-51.086,-27.405
0.724,-0.165,0.362,34.851,-48.767,-21.606
0.666,-0.177,0.349,43.213,-48.401,-16.113
0.664,-0.211,0.534,56.152,-72.205,-16.235
0.694,-0.244,0.618,63.782,-68.420,-16.907
0.684,-0.287,0.656,62.500,-104.370,-16.418
0.682,-0.371,0.712,65.369,-85.754,-11.108
0.732,-0.414,0.845,75.073,-74.219,3.784
0.676,-0.354,0.994,63.721,-69.946,13.550
0.679,-0.357,0.956,45.593,-64.270,18.555
0.654,-0.406,1.012,45.837,-67.444,21.912
0.724,-0.477,1.181,37.781,-69.031,25.085
0.718,-0.505,1.211,14.160,-75.928,41.382
0.592,-0.480,1.207,-0.305,-82.886,54.687
0.522,-0.464,1.241,-11.597,-70.313,55.054
0.453,-0.409,1.250,-29.114,-64.819,63.538
0.369,-0.360,1.246,-39.429,-43.030,69.885
0.271,-0.313,1.246,-47.729,-37.170,70.984
0.259,-0.249,1.240,-57.678,-31.921,62.561
0.239,-0.201,1.131,-68.481,-16.968,61.462
0.182,-0.133,1.108,-68.054,-5.920,61.401
0.135,-0.075,1.125,-71.472,-11.108,50.293
0.098,-0.046,1.266,-69.519,-12.451,37.781
0.092,-0.048,1.186,-81.482,6.287,27.893
0.048,-0.007,1.219,-92.957,14.832,17.273
0.044,0.049,1.244,-107.849,34.058,10.132
-0.011,0.093,1.051,-115.906,23.926,0.122
0.013,0.103,0.941,-118.713,36.865,-16.846
-0.001,0.142,0.921,-114.807,37.659,-34.180
0.043,0.132,0.865,-118.591,41.382,-41.687
0.097,0.159,0.873,-117.126,35.522,-52.612
0.152,0.229,0.810,-110.535,28.503,-59.326
0.130,0.268,0.761,-93.323,26.062,-64.453
0.137,0.234,0.687,-89.294,23.010,-73.425
0.165,0.227,0.560,-93.018,4.089,-81.543
0.224,0.240,0.468,-82.825,-0.671,-94.543
0.232,0.228,0.397,-63.232,0.549,-103.394
0.300,0.260,0.361,-42.664,2.380,-111.511
0.383,0.233,0.300,-22.705,2.258,-118.835
0.397,0.163,0.305,-7.080,4.028,-132.935
0.479,0.128,0.249,-2.258,-0.610,-137.573
0.540,0.084,0.155,15.930,-12.329,-132.568
0.489,-0.014,0.240,36.499,-49.500,-124.939
0.656,-0.049,0.398,32.715,-74.341,-124.756
0.642,-0.163,0.427,44.312,-64.087,-114.319
0.631,-0.252,0.564,61.951,-58.899,-111.145
0.750,-0.408,0.594,56.824,-68.176,-107.361
0.728,-0.443,0.704,60.120,-68.726,-79.468
0.725,-0.464,0.746,56.274,-66.833,-66.650
0.726,-0.521,0.782,66.650,-63.660,-55.664
0.691,-0.521,0.781,66.101,-54.749,-40.039
0.622,-0.475,0.874,70.068,-58.411,-28.870
0.605,-0.497,0.843,68.665,-53.406,-28.809
0.636,-0.515,0.716,61.707,-51.453,-14.160
0.547,-0.521,0.849,64.209,-62.744,5.005
0.572,-0.569,0.941,70.618,-58.044,7.202
0.587,-0.629,1.012,57.556,-58.899,18.677
0.539,-0.637,1.021,47.424,-56.458,33.569
0.474,-0.594,0.932,52.551,-73.669,47.302
0.437,-0.618,0.926,60.791,-44.617,40.466
0.476,-0.644,0.999,48.096,-63.354,57.251
0.394,-0.604,0.997,33.752,-61.829,72.998
0.328,-0.565,0.888,27.527,-50.903,77.148
0.266,-0.550,0.906,34.668,-54.871,77.332
0.260,-0.545,0.958,36.499,-51.453,71.289
0.252,-0.558,0.967,32.410,-45.898,75.378
0.238,-0.554,1.035,36.621,-34.668,77.942
0.226,-0.515,1.022,28.015,-21.912,70.007
0.244,-0.527,0.952,21.606,-19.104,71.838
0.243,-0.534,0.985,19.775,-19.226,70.923
0.255,-0.547,1.018,16.113,-11.841,65.308
0.272,-0.556,1.006,11.536,-6.897,64.880
0.261,-0.547,0.991,-6.470,-3.296,67.505
0.244,-0.489,0.989,-9.277,-2.136,64.209
0.244,-0.451,0.976,-12.817,3.601,59.631
0.256,-0.445,0.965,-14.771,4.395,54.016
0.280,-0.467,1.025,-10.681,12.512,51.392
0.336,-0.454,1.005,-10.498,30.396,49.744
0.342,-0.441,0.933,-20.752,40.588,51.208
0.373,-0.393,0.878,-28.870,33.875,47.729
0.408,-0.380,0.857,-29.419,29.663,46.265
0.447,-0.361,0.860,-32.837,33.020,44.739
0.432,-0.317,0.796,-39.612,35.400,49.683
0.453,-0.245,0.883,-67.932,37.292,53.284
0.480,-0.222,0.820,-64.148,43.945,49.133
0.513,-0.198,0.819,-55.664,72.021,47.729
0.513,-0.172,0.789,-48.523,72.876,42.603
0.542,-0.116,0.740,-47.119,61.890,31.616
0.586,-0.102,0.744,-36.926,57.007,33.752
0.602,-0.082,0.743,-35.339,48.950,24.719
0.624,-0.058,0.671,-20.264,45.776,21.179
0.574,-0.048,0.721,-13.855,44.800,11.902
0.655,-0.015,0.687,-26.917,45.715,12.939
0.645,-0.040,0.661,-18.982,45.349,12.573
0.660,-0.051,0.678,-27.039,46.814,7.080
0.676,-0.008,0.631,-24.719,44.250,-1.526
0.719,0.014,0.609,-23.560,47.546,-1.404
0.726,0.011,0.510,-24.719,53.650,2.441
0.729,0.049,0.503,-25.696,40.222,-2.014
0.785,0.013,0.538,-28.748,24.109,-1.038
0.802,0.018,0.502,-22.034,22.339,-6.409
0.827,0.033,0.490,-17.212,23.682,-7.812
0.829,0.056,0.416,-15.320,25.879,-10.071
0.844,0.056,0.374,-10.803,14.221,-11.597
0.851,0.051,0.397,-9.521,-0.549,-11.475
0.903,0.055,0.419,-3.479,-10.315,-12.329
0.894,0.076,0.459,7.751,-12.207,-6.653

0.745,-0.069,0.727,24.536,-87.952,17.578
0.651,-0.063,0.755,66.650,-96.802,21.973
0.582,0.042,0.825,20.813,-95.825,-2.014
0.496,-0.028,0.866,33.142,-89.294,10.254
0.442,-0.057,0.887,73.730,-51.819,-2.808
0.466,-0.130,0.979,36.255,-34.119,-9.705
0.482,-0.068,0.944,15.503,-29.480,12.268
0.486,-0.149,0.859,40.100,-39.612,20.691
0.395,-0.088,0.848,56.702,-41.077,1.648
0.425,-0.166,0.869,35.522,-42.175,-4.517
0.482,-0.198,0.895,16.724,-36.560,14.221
0.535,-0.245,0.808,12.512,-42.297,28.137
0.581,-0.295,0.617,48.279,-124.512,32.288
0.652,-0.301,0.838,47.180,-124.634,46.814
0.509,-0.292,0.901,58.228,-151.611,79.651
0.350,-0.296,1.044,56.824,-164.062,91.919
0.254,-0.308,1.184,60.547,-148.804,82.336
0.182,-0.315,1.226,46.936,-137.329,82.214
0.032,-0.311,1.253,22.949,-105.408,93.262
-0.070,-0.337,1.163,27.405,-44.983,97.656
-0.087,-0.323,1.228,20.142,-12.146,73.669
-0.022,-0.322,1.279,-11.719,-35.583,77.515
-0.122,-0.297,1.259,-45.166,-59.570,83.923
-0.196,-0.282,1.259,-43.579,-49.561,78.064
-0.180,-0.293,1.236,-63.782,-35.767,60.730
-0.153,-0.277,1.190,-87.341,-22.461,52.979
-0.218,-0.219,1.149,-94.604,-4.028,50.903
-0.225,-0.138,1.144,-86.548,19.043,46.875
-0.225,-0.046,1.113,-94.482,-2.258,39.490
-0.269,0.026,0.976,-101.746,2.014,34.485
-0.272,0.003,0.958,-69.092,35.278,37.354
-0.221,0.015,0.964,-62.561,49.255,0.916
-0.120,0.001,0.926,-100.403,12.451,-10.864
-0.149,0.020,0.950,-96.436,-5.371,-3.174
-0.177,0.088,0.985,-82.275,16.663,-3.967
-0.303,0.134,1.091,-80.139,28.137,-15.625
-0.281,0.133,1.226,-81.909,54.382,-40.527
-0.188,0.124,1.096,-84.351,87.769,-36.560
-0.207,0.214,0.893,-92.712,86.609,-30.029
-0.239,0.295,0.857,-102.661,62.012,-37.109
-0.175,0.322,0.793,-91.309,59.204,-54.016
-0.112,0.347,0.722,-80.688,56.030,-64.392
-0.049,0.339,0.664,-77.209,33.569,-79.224
0.005,0.307,0.660,-68.542,24.414,-93.811
0.083,0.355,0.640,-65.430,29.297,-103.394
0.126,0.392,0.654,-62.927,28.931,-103.699
0.147,0.355,0.586,-63.599,21.362,-100.708
0.166,0.390,0.552,-58.350,24.231,-110.291
0.254,0.399,0.540,-46.021,37.170,-130.615
0.289,0.304,0.463,-42.480,34.180,-136.169
0.375,0.279,0.332,-33.630,34.424,-140.259
0.439,0.230,0.248,-25.024,9.827,-160.339
0.412,0.136,0.196,-9.583,-4.822,-168.152
0.528,0.043,0.173,3.906,-9.521,-179.504
0.599,-0.099,0.214,13.245,-30.151,-178.711
0.701,-0.302,0.345,25.635,-56.946,-168.945
0.808,-0.366,0.446,41.870,-71.350,-150.696
0.767,-0.320,0.496,41.809,-47.668,-117.615
0.682,-0.272,0.522,40.100,-44.678,-104.248
0.711,-0.322,0.531,46.082,-64.575,-108.948
0.842,-0.470,0.611,51.392,-86.548,-83.923
0.761,-0.457,0.693,58.105,-64.636,-72.998
0.715,-0.474,0.589,41.382,-90.637,-65.674
0.600,-0.604,0.862,76.721,-123.718,-69.336
0.765,-0.682,1.123,92.957,-88.257,-64.941
0.695,-0.705,0.983,54.749,-63.843,-23.743
0.547,-0.712,0.958,55.847,-68.604,-1.770
0.631,-0.646,0.918,56.274,-62.073,-3.052
0.612,-0.697,0.952,42.114,-67.017,22.644
0.490,-0.673,0.893,37.842,-48.523,51.392
0.463,-0.577,0.773,35.400,-43.335,52.002
0.400,-0.612,0.932,29.602,-75.378,50.232
0.398,-0.636,1.125,30.762,-80.811,60.547
0.395,-0.600,0.925,19.653,-69.702,72.083
0.216,-0.583,0.996,-15.747,-129.578,76.050
0.177,-0.536,1.201,0.671,-108.765,92.224
0.128,-0.429,1.099,3.174,-62.561,92.651
0.061,-0.406,0.930,-33.997,-76.172,82.458
0.021,-0.418,1.056,-26.550,-129.028,79.895
-0.019,-0.397,1.095,-13.367,-119.202,86.182
-0.136,-0.392,0.942,-34.180,-79.773,87.036
-0.133,-0.362,0.914,-37.903,-42.542,69.519
-0.132,-0.317,0.987,-27.344,-17.761,71.411
-0.146,-0.299,0.997,-18.066,-0.183,59.448
-0.114,-0.293,0.956,-15.076,26.428,43.945
-0.063,-0.259,0.887,-12.634,34.363,38.391
-0.067,-0.239,0.886,-5.005,36.194,33.936
-0.047,-0.261,0.945,1.282,46.814,32.410
0.028,-0.273,0.960,3.113,66.589,19.775
0.065,-0.266,0.908,5.676,44.617,15.808
0.092,-0.266,0.933,4.761,30.945,10.071
0.161,-0.294,0.977,-3.845,15.320,12.634
0.163,-0.309,0.952,-4.333,0.366,6.531
0.175,-0.301,0.957,3.479,4.944,4.333
0.220,-0.307,0.941,0.000,9.460,-1.465
0.240,-0.302,0.928,-2.014,6.958,0.671
0.241,-0.290,0.909,-1.465,4.822,1.038
0.236,-0.293,0.883,2.319,1.709,-0.366
0.266,-0.329,0.929,7.812,-0.977,-4.883
0.273,-0.341,0.998,2.686,2.563,-1.648
0.249,-0.332,0.934,-1.831,5.676,0.916
0.236,-0.313,0.936,2.014,2.014,2.136
0.240,-0.301,0.928,1.465,5.127,0.610
0.246,-0.305,0.913,-3.723,3.723,-1.831
0.227,-0.297,0.901,-0.061,3.113,-0.977
0.238,-0.296,0.913,4.761,3.357,-1.343
0.246,-0.318,0.926,4.761,2.625,-2.563
0.261,-0.327,0.950,0.793,3.784,-2.075
0.250,-0.312,0.915,-0.793,5.615,0.183
0.246,-0.315,0.908,2.686,2.686,-2.136
0.273,-0.331,0.934,3.845,1.099,-2.869
0.278,-0.334,0.953,1.343,2.869,0.671
0.256,-0.314,0.922,-2.136,4.578,2.869
0.249,-0.301,0.910,0.000,2.747,-1.831
0.267,-0.319,0.904,2.197,-0.671,-3.174
0.279,-0.341,0.924,2.930,0.000,-1.587
0.276,-0.345,0.936,3.357,2.808,0.061
0.268,-0.329,0.933,-0.183,2.563,1.282
0.264,-0.322,0.914,-0.366,0.000,2.441
0.257,-0.308,0.912,2.563,0.061,2.380
0.252,-0.306,0.909,1.282,-0.732,-0.366
0.262,-0.328,0.912,0.549,-2.136,-0.732
0.278,-0.337,0.933,0.610,-1.404,2.319
0.258,-0.329,0.918,2.441,-0.854,2.319
0.255,-0.321,0.935,2.686,-1.831,0.916

0.261,-0.323,0.924,2.014,-0.916,-0.488
0.270,-0.333,0.939,0.244,-1.465,-0.122
0.259,-0.327,0.915,-0.610,1.221,0.366
0.265,-0.319,0.903,1.282,-0.061,-0.732
0.289,-0.314,0.887,2.014,-0.671,-1.831
0.289,-0.349,0.915,2.869,-4.211,-1.221
0.292,-0.363,0.943,3.296,-4.639,-0.061
0.264,-0.346,0.927,1.831,-3.174,3.113
0.249,-0.332,0.922,0.793,-4.456,2.625
0.241,-0.330,0.912,1.099,-5.432,1.282
0.244,-0.335,0.930,2.319,-6.897,0.366
0.252,-0.344,0.933,2.075,-5.249,0.916
0.256,-0.341,0.917,1.343,-5.798,0.427
0.259,-0.343,0.926,1.465,-3.540,1.038
0.260,-0.340,0.909,4.395,-3.662,2.930
0.248,-0.336,0.915,3.906,-7.019,0.610
0.245,-0.345,0.913,2.014,-8.667,0.916
0.236,-0.354,0.923,1.221,-10.925,0.854
0.236,-0.348,0.920,2.319,-9.460,0.916
0.231,-0.342,0.916,3.967,-10.559,1.160
0.256,-0.350,0.922,2.930,-13.123,0.732
0.291,-0.357,0.921,0.183,-17.212,1.648
0.333,-0.354,0.895,1.343,-24.170,5.371
0.387,-0.360,0.894,2.563,-34.424,12.695
0.376,-0.398,0.902,3.906,-30.212,19.592
0.321,-0.392,0.953,9.216,-34.302,29.663
0.318,-0.373,0.983,6.287,-38.147,33.386
0.331,-0.394,0.978,3.540,-45.105,40.649
0.292,-0.405,1.022,1.099,-58.105,47.974
0.229,-0.388,1.014,-3.845,-64.148,57.068
0.158,-0.364,1.026,-7.263,-68.848,61.279
0.056,-0.340,1.089,-9.644,-69.885,63.660
-0.028,-0.307,1.150,-12.573,-64.026,57.129
-0.000,-0.366,1.132,-21.729,-54.260,43.396
0.044,-0.403,1.139,-31.860,-49.622,41.260
0.003,-0.352,1.130,-42.419,-46.997,51.147
-0.044,-0.268,1.079,-46.082,-29.236,56.763
-0.085,-0.260,1.004,-47.058,-26.245,53.711
-0.033,-0.400,1.061,-49.133,-26.672,43.030
0.038,-0.443,1.088,-54.932,-24.048,47.485
-0.021,-0.381,0.996,-46.082,-23.254,46.387
-0.137,-0.219,0.955,-42.175,-18.494,45.227
-0.195,-0.100,0.974,-45.837,-21.545,37.231
-0.198,-0.034,0.968,-42.786,-26.428,34.241
-0.248,0.005,0.985,-49.316,-18.982,37.048
-0.228,0.037,1.022,-45.654,-29.724,21.790
-0.281,0.080,1.076,-47.668,-6.653,9.399
-0.211,0.063,1.088,-42.847,16.052,2.380
-0.196,0.078,1.127,-31.860,26.978,8.911
-0.216,0.067,1.112,-34.180,27.100,1.099
-0.185,0.026,1.122,-46.143,20.569,-7.751
-0.165,0.031,1.138,-48.218,32.715,-17.334
-0.207,0.059,1.114,-49.316,3.540,-14.954
-0.239,0.057,1.091,-63.416,26.855,-41.809
-0.212,0.070,1.029,-65.857,31.982,-49.194
-0.172,0.050,0.954,-58.777,52.795,-34.790
-0.157,0.073,1.011,-56.335,64.453,-21.973
-0.070,0.087,0.914,-71.106,59.326,-32.593
-0.095,0.167,0.862,-66.956,37.903,-38.513
-0.065,0.257,0.850,-46.814,48.950,-38.818
-0.063,0.279,0.896,-43.152,55.603,-34.546
0.015,0.285,0.867,-42.236,54.993,-44.373
0.046,0.314,0.886,-40.344,40.894,-48.767
0.110,0.356,0.902,-36.682,43.396,-55.298
0.148,0.352,0.854,-48.035,27.954,-47.729
0.121,0.380,0.853,-59.631,-8.423,-38.147
0.109,0.432,0.850,-53.833,-2.319,-40.894
0.133,0.451,0.836,-46.631,9.949,-69.275
0.154,0.472,0.883,-53.040,13.062,-71.716
0.210,0.421,0.880,-51.392,37.354,-68.481
0.221,0.376,0.817,-50.720,41.809,-71.167
0.229,0.389,0.758,-43.213,37.109,-79.346
0.274,0.348,0.712,-29.724,59.875,-81.055
0.310,0.372,0.662,-29.358,71.777,-89.905
0.373,0.354,0.580,-26.306,64.026,-98.450
0.411,0.315,0.454,-11.719,64.819,-104.492
0.443,0.231,0.403,-20.508,50.598,-93.872
0.511,0.250,0.345,-33.875,32.654,-96.313
0.571,0.231,0.271,-24.414,21.179,-97.595
0.535,0.109,0.341,-4.578,5.676,-105.713
0.625,-0.031,0.369,4.456,-5.432,-120.789
0.729,0.072,0.376,9.094,-22.766,-118.958
0.669,0.073,0.431,-0.916,-39.490,-96.802
0.667,0.012,0.491,-4.944,-68.359,-86.914
0.671,-0.015,0.483,2.808,-67.688,-86.121
0.653,-0.017,0.518,13.000,-72.388,-89.478
0.640,-0.122,0.539,23.682,-79.773,-84.900
0.598,-0.197,0.531,41.870,-89.355,-80.688
0.556,-0.284,0.639,62.378,-96.497,-81.177
0.550,-0.370,0.729,62.927,-91.736,-75.500
0.510,-0.494,0.877,65.369,-96.069,-60.974
0.590,-0.495,0.946,64.331,-92.834,-54.260
0.492,-0.391,0.788,34.790,-75.439,-33.020
0.417,-0.400,0.790,34.790,-87.402,-21.729
0.405,-0.453,0.927,56.580,-86.609,-22.339
0.479,-0.490,1.000,56.580,-71.106,-7.385
0.485,-0.432,0.894,38.635,-64.148,6.409
0.327,-0.438,0.783,41.138,-55.237,11.292
0.396,-0.589,0.999,55.847,-68.420,18.250
0.457,-0.669,1.073,35.339,-48.279,42.114
0.333,-0.643,0.881,20.813,-34.241,58.105
0.287,-0.651,0.873,37.292,-56.946,50.049
0.403,-0.668,1.015,36.926,-62.439,60.730
0.323,-0.619,0.916,-3.235,-65.552,98.511
0.128,-0.634,0.968,-5.981,-72.754,105.652
0.202,-0.536,1.072,26.550,-76.721,107.361
0.113,-0.435,1.029,18.799,-63.110,108.459
0.074,-0.454,1.006,-2.258,-66.650,119.812
0.037,-0.450,1.097,8.179,-42.480,121.460
0.010,-0.408,1.122,33.630,8.179,117.554
0.078,-0.420,1.141,14.832,22.888,99.487
0.122,-0.456,1.126,1.099,40.283,94.299
0.015,-0.438,1.126,7.935,54.260,94.543
0.093,-0.403,1.053,-5.432,51.941,75.928
0.058,-0.383,0.996,-17.212,4.944,57.678
0.089,-0.378,1.010,-11.047,5.981,50.537
0.155,-0.344,0.949,-13.489,27.466,29.175
0.167,-0.347,0.890,-22.949,12.939,23.071
0.189,-0.339,0.946,-17.334,-2.014,23.132
0.190,-0.316,0.958,-8.057,10.559,13.123
0.232,-0.298,0.952,-13.000,8.850,1.282
0.308,-0.289,0.909,-18.799,-2.930,0.671
0.322,-0.271,0.886,-15.015,0.671,-2.258
0.349,-0.263,0.894,-9.949,1.770,-3.906
0.368,-0.274,0.887,-14.648,-3.723,0.916

0.429,-0.238,0.894,0.000,1.038,-3.418
0.416,-0.238,0.882,-1.526,1.282,-3.906
0.426,-0.249,0.891,-1.404,-3.418,-3.357
0.423,-0.250,0.897,1.526,-4.395,-0.549
0.405,-0.241,0.899,2.686,-3.052,0.000
0.403,-0.249,0.911,-0.366,-7.629,0.061
0.402,-0.241,0.901,-0.977,-6.104,2.136
0.389,-0.232,0.881,1.404,-5.066,2.197
0.396,-0.235,0.901,3.479,-14.038,0.671
0.392,-0.230,0.924,0.366,-10.559,1.587
0.427,-0.226,0.858,0.793,-9.155,0.916
0.517,-0.251,0.865,6.409,-21.912,2.808
0.591,-0.256,0.858,7.690,-32.471,10.620
0.635,-0.282,0.938,2.930,-52.002,23.987
0.611,-0.288,0.991,7.446,-51.147,36.560
0.639,-0.319,1.047,7.690,-53.772,46.326
0.561,-0.318,1.077,-2.319,-65.430,62.317
0.419,-0.272,1.077,-11.475,-69.946,75.134
0.327,-0.234,1.132,-16.968,-63.904,76.599
0.214,-0.226,1.192,-28.381,-59.509,76.721
0.131,-0.186,1.249,-36.499,-52.979,69.702
0.145,-0.130,1.208,-52.124,-54.932,54.077
0.067,-0.159,1.043,-68.420,-66.833,57.068
0.018,-0.186,1.117,-65.369,-70.190,52.002
0.018,-0.148,1.193,-74.158,-43.335,42.542
-0.053,-0.042,1.011,-81.360,-36.194,44.983
-0.194,0.110,1.009,-79.102,-35.400,42.175
-0.246,0.192,1.044,-71.289,-18.372,23.193
-0.207,0.218,1.009,-76.172,-5.615,7.935
-0.193,0.210,1.012,-71.472,9.766,0.671
-0.272,0.263,1.094,-68.481,26.489,-5.676
-0.246,0.268,1.075,-81.604,26.489,-13.733
-0.292,0.338,1.033,-83.435,35.400,-22.400
-0.309,0.352,1.039,-74.402,50.659,-34.973
-0.239,0.284,0.922,-87.280,46.753,-45.044
-0.251,0.271,0.943,-81.177,44.250,-46.021
-0.096,0.264,0.862,-70.801,56.396,-65.247
-0.042,0.269,0.755,-73.730,48.157,-72.815
-0.061,0.313,0.765,-66.589,37.170,-76.355
0.007,0.318,0.707,-55.664,26.733,-92.407
0.095,0.273,0.620,-57.617,14.832,-106.445
0.158,0.259,0.551,-46.204,17.090,-105.774
0.154,0.293,0.588,-26.184,27.161,-108.826
0.225,0.284,0.553,-3.296,38.757,-122.925
0.347,0.217,0.474,-15.259,19.226,-126.526
0.428,0.214,0.406,-14.221,1.160,-118.286
0.451,0.223,0.408,6.531,5.310,-110.413
0.434,0.223,0.443,19.104,2.197,-113.342
0.436,0.175,0.454,17.517,-18.494,-111.328
0.524,0.125,0.439,20.569,-35.706,-112.122
0.521,0.000,0.557,41.931,-39.673,-104.431
0.541,-0.028,0.714,55.542,-22.339,-105.469
0.605,-0.104,0.580,41.138,-26.978,-102.173
0.628,-0.214,0.577,50.842,-54.016,-89.539
0.603,-0.276,0.775,80.933,-48.950,-88.257
0.690,-0.334,0.782,79.712,-43.274,-96.558
0.703,-0.450,0.695,67.688,-57.129,-63.843
0.621,-0.444,0.827,83.557,-63.354,-44.495
0.641,-0.442,1.055,106.140,-49.377,-42.114
0.709,-0.456,0.917,78.552,-33.264,-35.095
0.655,-0.403,0.740,52.429,-45.410,-3.174
0.463,-0.461,1.059,88.257,-59.998,10.986
0.601,-0.458,1.168,97.961,-36.621,-8.301
0.609,-0.458,0.869,48.340,-36.804,5.005
0.477,-0.463,0.880,41.626,-63.110,30.579
0.463,-0.489,1.036,76.660,-39.612,37.781
0.499,-0.492,0.913,50.110,-29.297,31.311
0.403,-0.516,0.827,23.315,-59.692,50.415
0.343,-0.510,1.019,48.828,-72.693,58.533
0.392,-0.519,1.113,60.974,-45.532,48.889
0.372,-0.591,1.025,28.748,-34.668,55.847
0.326,-0.601,1.020,9.216,-49.988,71.106
0.276,-0.566,1.028,7.202,-43.213,78.064
0.249,-0.520,1.024,2.869,-30.212,76.355
0.239,-0.511,0.972,-7.080,-28.503,73.853
0.234,-0.491,0.962,-8.911,-28.320,74.524
0.205,-0.459,0.990,-5.493,-24.658,71.533
0.196,-0.430,0.990,-5.554,-25.452,68.359
0.195,-0.425,0.961,-9.094,-20.569,66.711
0.187,-0.376,0.902,-13.184,-15.381,64.758
0.143,-0.362,0.909,-12.024,-16.357,58.289
0.136,-0.340,0.934,-6.592,-16.235,46.204
0.161,-0.336,0.953,-6.836,-14.526,38.452
0.161,-0.314,0.952,-11.108,-12.573,35.217
0.147,-0.297,0.919,-13.306,-14.709,30.151
0.196,-0.305,0.922,-10.132,-11.475,22.766
0.213,-0.286,0.939,-8.484,-7.690,23.865
0.208,-0.271,0.922,-12.756,-1.892,18.982
0.237,-0.283,0.934,-12.268,-4.883,15.137
0.267,-0.288,0.924,-12.695,-6.714,10.681
0.301,-0.276,0.915,-9.583,-10.925,8.118
0.293,-0.273,0.907,-7.507,-8.301,9.766
0.277,-0.287,0.912,-6.348,-5.188,9.521
0.269,-0.281,0.930,-3.662,-9.216,11.108
0.263,-0.259,0.919,-3.662,-9.705,10.437
0.260,-0.260,0.929,-1.953,-5.676,9.338
0.265,-0.280,0.947,-1.343,0.000,8.972
0.293,-0.297,0.941,-3.418,6.714,12.329
0.266,-0.262,0.893,-0.793,14.526,13.123
0.249,-0.228,0.897,2.136,11.292,8.911
0.263,-0.230,0.912,1.953,5.981,4.639
0.254,-0.219,0.926,3.235,4.639,3.174
0.255,-0.231,0.921,-0.061,0.000,1.343
0.267,-0.254,0.934,1.709,-2.319,-1.404
0.279,-0.264,0.947,3.113,2.991,-5.310
0.316,-0.284,0.962,-0.488,0.854,-1.343
0.294,-0.275,0.961,0.305,2.441,3.540
0.270,-0.249,0.929,-2.075,2.991,-2.136
0.293,-0.252,0.922,-0.977,-3.723,-3.845
0.281,-0.249,0.948,0.977,-2.014,-3.357
0.279,-0.253,0.956,-2.930,2.991,-3.845
0.287,-0.251,0.907,-1.709,2.380,-3.296
0.293,-0.255,0.915,0.671,-0.183,-2.869
0.299,-0.256,0.922,-1.648,4.150,-2.625
0.279,-0.236,0.905,3.296,8.118,-2.441
0.299,-0.246,0.942,5.981,6.958,-3.784
0.308,-0.274,0.925,-0.183,1.404,-4.150
0.333,-0.295,0.919,-2.686,-2.258,-3.723
0.321,-0.281,0.931,0.671,2.014,-2.197
0.315,-0.267,0.935,-1.648,0.916,-2.014
0.305,-0.259,0.914,-3.235,-2.258,-1.343
0.314,-0.271,0.917,-1.404,-2.930,-1.099
0.295,-0.256,0.926,1.953,0.122,-0.122
0.290,-0.260,0.935,0.977,1.221,-4.089
0.298,-0.269,0.941,0.427,-2.563,-3.296

0.346,-0.306,1.012,-4.700,-29.297,32.837
0.296,-0.267,1.009,-7.507,-29.297,38.818
0.256,-0.216,1.050,-6.165,-29.480,38.086
0.212,-0.286,1.071,-11.597,-30.823,35.217
0.246,-0.337,1.137,-19.775,-35.889,33.020
0.195,-0.312,1.210,-21.362,-24.719,37.292
0.133,-0.201,1.060,-31.189,-3.052,41.382
0.104,-0.167,0.948,-31.067,-6.470,31.677
0.118,-0.192,0.993,-37.903,-24.536,23.193
0.099,-0.197,1.124,-30.945,-11.230,30.090
0.041,-0.161,1.175,-28.625,18.982,24.841
0.027,-0.162,1.134,-50.415,19.470,16.052
0.021,-0.143,1.156,-53.833,11.841,12.329
0.036,-0.111,1.244,-54.504,23.193,10.010
0.003,-0.078,1.272,-65.430,38.147,4.456
0.041,-0.072,1.264,-84.045,40.344,-8.301
0.092,-0.046,1.173,-93.323,50.598,-6.531
0.067,0.016,1.194,-97.961,61.340,-5.920
0.110,0.069,1.107,-109.985,60.791,-19.531
0.113,0.132,1.007,-113.098,58.044,-22.278
0.125,0.164,0.929,-112.671,56.458,-27.771
0.160,0.186,0.838,-112.976,52.979,-39.185
0.182,0.181,0.744,-107.300,43.274,-53.711
0.228,0.208,0.692,-96.252,37.048,-64.209
0.250,0.222,0.665,-92.834,30.823,-67.810
0.302,0.220,0.629,-89.539,22.644,-69.946
0.333,0.262,0.622,-80.505,24.597,-77.271
0.401,0.279,0.555,-74.280,32.043,-83.496
0.367,0.279,0.569,-69.702,24.902,-76.599
