aX,aY,aZ,gX,gY,gZ
0.656,-0.669,0.053,142.151,-46.570,164.734
0.944,-0.431,-0.086,108.337,-109.375,232.544
0.694,-0.607,0.069,25.635,-118.652,238.770
1.092,0.061,-0.277,12.268,-40.588,95.825
0.786,-0.258,-0.096,1.892,77.759,-28.381
0.879,-0.149,-0.101,36.621,134.399,-9.399
0.924,-0.229,-0.107,61.157,36.987,7.996
0.979,-0.339,-0.135,37.598,-37.048,32.288
0.996,-0.317,-0.079,25.574,-33.813,62.744
0.960,-0.211,-0.041,25.330,6.409,32.349
0.981,-0.269,-0.037,38.635,15.381,30.151
0.929,-0.219,-0.034,30.701,-9.521,10.925
0.980,-0.217,-0.007,45.715,-51.697,9.705
1.003,-0.215,0.049,13.672,-60.181,12.756
1.052,-0.152,0.050,12.146,-41.565,28.076
1.083,-0.130,0.072,0.183,-55.176,25.818
1.204,-0.138,0.088,-3.296,-76.050,24.597
1.293,-0.048,0.168,-11.230,-110.718,27.771
1.335,0.085,0.203,-27.100,-132.263,29.053
1.297,0.254,0.202,5.920,-110.229,27.954
1.316,0.318,0.122,-10.132,-144.775,15.015
1.266,0.296,0.153,8.606,-200.989,22.400
1.194,0.402,0.353,50.720,-190.247,59.082
1.016,0.560,0.385,13.306,-189.697,69.641
0.779,0.694,0.418,27.893,-185.303,56.519
0.604,0.736,0.518,56.396,-193.237,15.137
0.458,0.586,0.594,71.838,-201.477,-28.442
0.264,0.448,0.667,98.206,-185.120,-39.795
-0.138,0.249,0.639,98.389,-165.771,-70.496
-0.440,-0.256,0.450,75.317,-136.353,-162.842
-0.367,-1.024,0.313,70.190,-123.230,-205.872
-0.543,-1.385,0.286,70.129,-135.437,-188.171
-0.492,-1.643,0.450,117.371,-130.737,-207.336
0.089,-1.703,1.097,141.418,-80.750,-179.138
0.368,-1.224,1.134,102.173,89.600,-40.039
0.070,-0.712,0.457,-18.188,151.550,87.769
-0.290,-0.486,0.449,0.488,-4.333,16.968
-0.180,-0.478,0.786,40.894,4.333,0.610
-0.140,-0.494,0.866,18.494,31.555,4.395
-0.042,-0.595,0.773,9.277,19.165,5.920
0.002,-0.763,0.847,32.715,19.897,21.606
0.121,-0.897,0.880,11.169,30.457,38.635
0.209,-0.935,0.727,-8.606,38.269,80.933
-0.010,-1.017,0.662,2.563,44.067,101.257
0.153,-1.013,0.593,-26.001,46.814,96.069
0.263,-0.782,0.556,-61.401,18.982,99.670
0.102,-0.707,0.666,-73.730,22.217,86.304
0.335,-0.785,0.634,-70.435,49.805,87.952
0.392,-0.375,0.659,-61.035,71.167,113.403
0.264,-0.289,0.522,-101.013,57.007,91.064
0.636,-0.342,0.608,-72.937,41.016,80.688
0.637,-0.048,0.830,-42.114,73.364,96.252
0.479,-0.141,0.761,-104.492,93.506,68.237
0.715,-0.046,0.702,-110.901,76.111,56.519
0.656,0.401,0.622,-62.134,81.360,87.952
0.629,0.317,0.620,-46.814,92.651,74.097
0.716,0.273,0.678,-57.007,74.402,71.716
0.613,0.490,0.782,-33.142,57.739,81.299
0.658,0.489,0.804,-10.315,58.716,43.701
0.770,0.443,0.707,-16.785,64.575,41.016
0.757,0.697,0.550,-20.386,83.252,66.956
0.929,0.904,0.470,8.667,101.074,49.133
1.117,0.823,0.493,16.113,27.405,29.663
0.990,0.378,0.612,11.047,-43.274,45.105
0.673,0.329,0.693,0.305,-25.574,51.270
0.598,0.323,0.606,1.282,5.981,15.869
0.669,0.199,0.546,12.512,11.963,-4.395
0.736,0.175,0.562,8.240,5.310,-0.671
0.740,0.231,0.550,0.366,5.310,-2.930
0.758,0.242,0.553,4.089,2.686,-12.695
0.814,0.198,0.570,1.099,-7.507,-13.306
0.835,0.196,0.554,-9.094,-4.333,-5.859
0.820,0.248,0.529,-9.399,0.244,-3.906
0.834,0.253,0.525,-7.812,2.869,-5.676
0.895,0.232,0.549,-14.221,-5.615,-3.174
0.836,0.270,0.539,-15.259,-3.601,7.141
0.805,0.304,0.509,-5.920,8.240,4.395
0.801,0.274,0.527,5.066,1.770,-6.226
0.839,0.225,0.600,6.287,-14.465,-5.127
0.834,0.223,0.612,4.333,-13.000,-0.977
0.837,0.240,0.604,-1.099,-9.277,-3.418
0.804,0.269,0.562,-3.296,-9.705,-4.333
0.760,0.279,0.561,1.282,-7.080,-2.441
0.771,0.251,0.581,-3.906,-12.329,-4.089
0.773,0.253,0.558,-4.700,-10.559,-2.686
0.802,0.263,0.574,-0.488,-3.235,-4.028
0.829,0.235,0.590,-3.906,-6.958,-1.770
0.831,0.230,0.585,-7.751,-5.432,7.385
0.783,0.261,0.560,-8.301,-0.427,14.099
0.737,0.280,0.534,-4.822,-0.427,8.972
0.729,0.265,0.557,-3.113,-8.423,3.479
0.744,0.267,0.598,-4.272,-7.080,5.798
0.725,0.300,0.597,-1.282,1.831,3.174
0.754,0.301,0.596,-2.075,-1.892,-2.808
0.789,0.260,0.601,-2.075,-3.906,-3.052
0.779,0.252,0.578,-0.183,-1.160,-3.662
0.784,0.234,0.593,0.916,-2.930,-0.793
0.770,0.258,0.574,2.136,1.343,6.165
0.752,0.314,0.548,4.395,5.066,3.723
0.773,0.288,0.552,3.967,-0.244,-1.831
0.789,0.270,0.589,2.197,-9.277,-0.977
0.776,0.285,0.640,3.601,-9.705,4.089
0.772,0.283,0.653,-0.366,-9.705,6.531
0.740,0.299,0.609,-1.831,0.610,6.226
0.721,0.274,0.592,-0.122,3.357,2.563
0.693,0.260,0.583,-1.770,-2.625,2.625
0.695,0.261,0.586,-1.404,0.305,0.305
0.730,0.266,0.590,-0.122,2.869,-3.967
0.756,0.272,0.595,3.784,3.662,-4.272
0.783,0.274,0.634,2.991,0.977,-6.470
0.788,0.256,0.622,-0.793,2.991,-5.920
0.795,0.257,0.595,5.920,5.127,-2.380
0.770,0.260,0.599,3.601,7.446,3.906
0.725,0.297,0.578,-1.709,13.184,2.930
0.738,0.291,0.547,-2.197,13.916,-3.540
0.762,0.279,0.555,0.000,7.568,-6.348
0.773,0.292,0.560,-0.854,6.287,-5.554
0.780,0.285,0.554,0.793,9.705,-4.211
0.792,0.274,0.565,-3.845,4.639,-4.883
0.802,0.266,0.545,-3.601,2.991,-4.700
0.796,0.277,0.537,0.305,5.737,-4.333
0.787,0.289,0.538,0.916,4.395,-5.676
0.818,0.266,0.530,-0.854,2.380,-9.216
0.831,0.249,0.513,1.648,5.188,-7.629
0.825,0.238,0.529,2.991,6.470,-4.822

0.812,0.232,0.557,-0.305,-1.038,0.244
0.814,0.229,0.557,-1.709,-0.977,-0.732
0.813,0.227,0.547,-1.892,0.854,-0.488
0.807,0.233,0.547,-2.808,0.366,0.366
0.809,0.233,0.547,-2.808,-0.122,-0.061
0.804,0.238,0.535,-2.747,1.526,0.671
0.816,0.237,0.535,-1.343,0.977,-0.793
0.822,0.230,0.538,-0.488,1.526,-0.610
0.824,0.226,0.545,0.732,1.526,1.892
0.806,0.243,0.552,0.305,1.648,2.930
0.800,0.251,0.549,0.061,1.404,0.732
0.818,0.241,0.548,-0.244,-0.732,-0.610
0.815,0.245,0.540,0.244,0.427,1.160
0.808,0.250,0.532,-0.305,2.136,2.136
0.800,0.258,0.511,1.160,2.075,-0.244
0.818,0.249,0.519,2.930,-0.183,-0.732
0.815,0.246,0.522,3.418,1.831,-1.953
0.828,0.220,0.536,3.479,0.061,-2.075
0.812,0.230,0.538,3.723,1.465,-0.244
0.811,0.237,0.536,4.456,3.174,-1.099
0.806,0.260,0.529,3.723,1.770,-1.770
0.802,0.282,0.526,6.836,3.052,-5.249
0.829,0.281,0.540,8.850,-0.488,-7.080
0.874,0.312,0.562,11.047,-7.507,-7.324
0.902,0.340,0.607,14.587,-13.428,-7.446
0.912,0.340,0.625,17.944,-20.142,-4.456
0.871,0.408,0.648,16.907,-24.048,-0.671
0.837,0.497,0.651,15.015,-22.339,-3.540
0.832,0.585,0.661,15.625,-29.846,-8.545
0.925,0.682,0.683,11.353,-62.988,-13.306
0.931,0.759,0.766,21.729,-88.135,-3.845
0.834,0.846,0.744,32.532,-80.444,-1.282
0.798,1.017,0.698,49.561,-65.430,-18.555
0.798,1.050,0.689,56.702,-85.754,-52.246
0.649,0.932,0.746,49.622,-118.835,-66.589
0.233,0.590,0.677,53.223,-83.740,-88.928
-0.100,0.108,0.306,27.832,-73.059,-142.151
-0.350,-0.659,0.061,36.865,-109.863,-185.181
-0.433,-1.325,0.060,62.317,-136.658,-196.472
-0.311,-2.071,0.350,101.868,-166.992,-220.703
0.256,-2.077,0.850,188.049,-80.139,-212.097
1.100,-1.556,0.986,84.839,55.908,-67.200
0.303,-0.954,0.916,3.052,24.353,73.914
-0.473,-0.384,1.103,-24.536,-33.691,41.626
-0.419,-0.130,0.838,-13.428,-1.831,-4.089
0.092,-0.415,0.784,20.203,-16.235,-36.865
0.226,-0.576,1.072,24.963,-17.151,-23.560
0.220,-0.552,1.007,-1.953,12.390,-1.160
0.286,-0.516,0.736,0.122,25.635,-5.005
0.215,-0.508,0.842,11.169,-2.319,-6.226
0.118,-0.484,0.899,-0.061,-0.488,-9.766
0.209,-0.505,0.792,-1.282,9.827,-9.277
0.216,-0.540,0.822,9.888,14.954,-6.470
0.230,-0.576,0.898,17.212,16.907,-1.160
0.260,-0.560,0.903,10.254,24.048,4.456
0.304,-0.621,0.907,0.061,8.728,3.906
0.285,-0.632,0.911,1.831,10.254,19.775
0.252,-0.651,0.838,7.568,26.306,30.762
0.247,-0.604,0.788,18.372,37.720,43.335
0.207,-0.590,0.799,12.939,28.076,53.406
0.180,-0.600,0.726,15.381,21.667,50.415
0.283,-0.713,0.652,31.860,25.208,45.654
0.340,-0.741,0.733,11.108,11.719,71.838
0.252,-0.815,0.710,-11.536,0.793,88.318
0.315,-0.748,0.692,-1.282,17.273,99.792
0.358,-0.630,0.620,-2.014,39.307,109.192
0.353,-0.621,0.647,-46.753,31.311,104.309
0.386,-0.437,0.718,-58.472,40.833,106.628
0.365,-0.130,0.607,-47.485,80.994,110.596
0.388,-0.074,0.503,-69.702,83.130,93.384
0.544,0.150,0.568,-65.552,65.430,88.745
0.578,0.196,0.584,-63.660,47.424,94.666
0.590,0.073,0.643,-82.642,25.879,63.232
0.776,0.218,0.578,-55.664,53.955,50.232
0.697,0.333,0.585,-49.927,75.012,43.945
0.778,0.250,0.530,-37.231,58.655,15.991
0.840,0.302,0.516,-11.597,54.626,26.489
0.818,0.314,0.500,-14.221,71.411,30.884
0.844,0.333,0.529,-25.574,65.063,29.236
0.841,0.395,0.489,-28.870,48.035,14.465
0.877,0.401,0.562,-0.916,47.058,7.263
0.928,0.478,0.620,-0.183,45.776,13.672
1.069,0.582,0.567,3.357,48.950,-2.380
1.304,0.654,0.620,44.922,45.471,-13.611
1.230,0.388,0.649,32.959,13.672,11.841
0.991,0.138,0.494,0.244,1.831,18.311
0.938,0.072,0.355,5.981,10.559,13.306
0.870,0.068,0.347,15.564,8.789,12.878
0.796,0.063,0.437,11.658,-7.141,5.737
0.780,0.082,0.501,-2.075,-30.701,2.136
0.819,0.112,0.503,-10.437,-28.870,0.122
0.840,0.133,0.490,-14.221,-5.310,8.362
0.859,0.168,0.467,-8.240,4.456,10.681
0.874,0.203,0.464,-3.845,2.136,5.676
0.886,0.213,0.445,-7.812,0.305,3.052
0.919,0.196,0.411,-7.996,-2.014,0.977
0.942,0.181,0.431,-8.057,-14.343,2.808
0.928,0.192,0.445,-7.202,-10.437,6.348
0.887,0.211,0.450,-4.761,-7.263,7.568
0.848,0.222,0.474,1.221,-5.859,7.629
0.843,0.211,0.489,2.075,-5.981,4.578
0.822,0.220,0.506,-2.197,-6.897,5.066
0.800,0.234,0.503,-3.784,-5.127,0.732
0.846,0.207,0.478,-4.700,-6.592,-3.235
0.894,0.188,0.480,-5.920,-11.963,-2.625
0.897,0.206,0.477,-6.653,-10.498,0.854
0.866,0.220,0.474,-2.258,-1.526,5.249
0.832,0.223,0.484,-1.099,-2.258,4.272
0.806,0.230,0.487,-0.671,-6.165,3.418
0.815,0.223,0.484,-1.587,-5.188,0.366
0.837,0.218,0.488,-2.625,-6.775,-2.930
0.842,0.210,0.493,0.427,-4.822,-1.099
0.842,0.222,0.512,0.061,-3.479,-0.977
0.852,0.223,0.505,-2.502,-5.554,-1.831
0.857,0.208,0.505,-0.183,-3.479,-0.793
0.854,0.206,0.511,1.404,0.000,0.122
0.845,0.218,0.516,-0.366,-2.625,2.930
0.829,0.221,0.523,3.174,-2.625,3.784
0.824,0.217,0.524,-1.465,-0.122,1.343
0.836,0.215,0.499,-3.784,-1.709,0.183
0.839,0.225,0.502,-2.747,-3.113,-0.732
0.841,0.233,0.515,-2.075,-3.845,-1.648
0.846,0.224,0.507,-1.770,-1.770,-0.854
0.836,0.228,0.507,-0.610,-0.732,1.282
0.815,0.232,0.510,-1.160,-0.610,0.916

0.838,0.210,0.523,0.183,0.305,-0.122
0.836,0.206,0.532,0.061,-0.671,-0.549
0.838,0.211,0.527,-0.977,0.793,0.488
0.829,0.228,0.517,-1.831,1.099,0.732
0.839,0.222,0.515,-2.075,-0.061,-0.732
0.853,0.216,0.499,-0.610,0.671,-0.427
0.849,0.216,0.505,-0.671,-1.526,0.061
0.837,0.221,0.509,0.000,-2.441,0.916
0.846,0.211,0.513,0.427,-2.014,0.122
0.818,0.227,0.526,0.061,-3.296,0.549
0.806,0.237,0.518,0.549,-0.488,-0.793
0.808,0.263,0.522,1.953,0.610,-3.235
0.841,0.322,0.526,5.432,0.427,-5.554
0.941,0.405,0.598,12.512,-3.235,-9.949
1.117,0.521,0.749,14.893,-31.738,-16.113
1.196,0.714,0.865,21.301,-46.570,-7.935
1.098,0.865,0.758,20.935,-32.837,11.841
0.866,0.938,0.679,9.583,-63.660,9.338
0.714,0.981,0.674,10.132,-119.751,-29.053
0.650,0.983,0.654,56.396,-103.699,-51.453
0.536,0.876,0.692,84.839,-87.585,-76.843
0.477,0.831,0.802,78.796,-85.876,-95.398
0.255,0.654,0.690,37.842,-82.397,-131.592
0.070,0.240,0.533,37.415,-58.777,-149.536
-0.270,-0.478,0.232,21.851,-32.837,-157.166
-0.425,-1.159,-0.084,1.526,-111.145,-206.787
-0.232,-1.909,0.115,79.224,-154.907,-273.926
0.412,-2.113,0.883,138.855,-99.792,-244.263
1.302,-1.319,0.824,68.726,109.558,-75.867
0.727,-1.003,0.477,11.353,9.460,57.678
-0.216,-0.476,1.007,18.982,-80.688,56.885
-0.448,-0.255,1.089,6.104,-36.743,27.100
-0.023,-0.365,0.752,-0.305,5.066,-23.743
0.371,-0.589,0.784,26.306,-0.610,-38.818
0.358,-0.587,0.909,24.658,3.235,-9.033
0.285,-0.517,0.775,6.592,19.958,2.502
0.340,-0.518,0.683,7.263,7.019,-9.277
0.334,-0.590,0.833,13.733,-19.470,-15.015
0.236,-0.573,0.900,15.930,-1.648,1.709
0.301,-0.535,0.756,10.498,10.620,5.371
0.337,-0.580,0.801,8.728,-0.732,1.526
0.229,-0.563,0.891,4.089,-9.399,5.981
0.205,-0.539,0.848,5.066,2.502,3.174
0.335,-0.579,0.759,2.747,-0.122,-6.836
0.334,-0.603,0.838,3.540,-13.123,-2.075
0.255,-0.571,0.870,-2.441,-7.935,8.972
0.202,-0.526,0.787,-6.897,2.075,2.380
0.255,-0.542,0.783,2.197,-1.831,-7.324
0.289,-0.601,0.876,-1.343,-7.568,-3.174
0.252,-0.592,0.885,-8.423,2.869,10.132
0.254,-0.590,0.810,-9.583,5.676,10.376
0.302,-0.596,0.794,-9.155,-1.831,13.245
0.275,-0.604,0.770,-7.080,-10.132,20.081
0.226,-0.627,0.737,4.578,-6.897,22.400
0.257,-0.690,0.788,2.319,-8.057,47.180
0.198,-0.649,0.795,-2.258,8.606,73.364
0.177,-0.651,0.768,0.061,19.775,68.848
0.216,-0.681,0.743,-2.686,16.113,61.401
0.287,-0.605,0.746,-7.568,27.832,69.885
0.316,-0.584,0.661,-15.869,39.612,76.294
0.343,-0.475,0.673,-22.339,35.278,77.087
0.367,-0.491,0.711,-17.334,40.222,78.064
0.453,-0.389,0.687,-32.227,39.978,69.092
0.529,-0.344,0.650,-35.339,39.490,55.664
0.535,-0.308,0.716,-32.471,22.583,51.697
0.619,-0.203,0.693,-32.104,38.330,53.894
0.602,-0.213,0.626,-32.288,48.828,55.420
0.645,-0.171,0.703,-24.109,40.894,52.185
0.735,-0.027,0.726,-20.447,43.274,54.871
0.674,-0.099,0.652,-35.522,41.077,47.668
0.715,-0.057,0.625,-42.480,30.090,33.264
0.706,0.073,0.587,-19.592,60.364,53.284
0.675,0.049,0.615,-15.747,61.707,45.349
0.711,0.062,0.667,-36.926,24.048,31.250
0.748,0.156,0.600,-32.776,39.246,33.569
0.745,0.179,0.529,-25.757,77.881,36.682
0.774,0.185,0.531,-34.790,63.477,29.846
0.788,0.205,0.591,-33.447,37.903,16.296
0.824,0.213,0.652,-24.475,40.527,9.155
0.888,0.265,0.681,-20.203,51.392,9.521
1.020,0.339,0.671,-24.170,36.194,-0.427
1.093,0.386,0.650,-10.193,7.874,-4.333
1.109,0.363,0.693,12.512,-17.334,-7.874
1.035,0.206,0.722,15.137,-23.010,-4.395
1.000,0.060,0.619,-2.686,-13.550,7.141
0.923,0.039,0.487,-6.226,-8.667,14.099
0.858,0.048,0.452,0.793,-1.343,19.531
0.747,0.091,0.467,3.540,3.174,21.301
0.709,0.098,0.498,1.892,-4.822,8.179
0.736,0.085,0.540,1.770,-11.902,0.366
0.794,0.065,0.582,1.526,-13.184,-6.226
0.812,0.070,0.601,3.296,-0.305,-2.136
0.859,0.067,0.583,-0.732,8.423,-1.770
0.895,0.074,0.555,-5.493,-0.854,-2.319
0.880,0.101,0.548,-5.493,0.183,0.488
0.879,0.104,0.516,-5.005,0.000,1.099
0.860,0.105,0.541,-2.808,-5.920,1.587
0.847,0.102,0.546,-2.808,-5.554,1.831
0.822,0.113,0.546,-1.343,-1.099,4.456
0.790,0.125,0.556,-0.549,-1.099,3.479
0.809,0.113,0.551,-0.977,-2.686,0.122
0.824,0.109,0.556,-0.549,-2.502,-1.404
0.829,0.098,0.572,-1.160,-3.906,-3.784
0.830,0.098,0.578,-4.211,-4.028,-1.404
0.834,0.103,0.558,-2.380,0.549,0.793
0.854,0.100,0.549,-1.892,1.099,0.793
0.856,0.098,0.539,-2.563,-2.625,0.610
0.840,0.105,0.553,-2.563,-2.563,2.136
0.829,0.110,0.557,-0.488,-1.648,3.601
0.815,0.119,0.566,0.427,-0.793,2.441
0.817,0.114,0.555,-0.549,-2.014,0.305
0.835,0.106,0.559,-2.197,-4.578,-0.061
0.828,0.113,0.557,-1.099,-3.601,1.648
0.811,0.116,0.567,0.732,-0.488,1.404
0.816,0.112,0.573,-0.244,-0.916,0.427
0.837,0.100,0.562,0.305,-0.366,0.061
0.854,0.088,0.562,0.183,-1.709,0.183
0.834,0.106,0.582,-1.160,-3.296,3.113
0.816,0.118,0.573,-0.977,1.160,5.005
0.817,0.118,0.570,-2.136,0.427,3.845
0.825,0.110,0.575,-1.343,-2.991,1.587
0.834,0.109,0.570,-1.709,-0.854,2.563
0.813,0.125,0.566,-2.747,0.671,5.310
0.804,0.137,0.567,-2.747,0.916,4.883
0.805,0.137,0.548,-0.671,2.808,4.211

0.819,0.125,0.593,10.132,-6.531,-2.869
0.810,0.135,0.591,9.705,-5.737,-1.892
0.803,0.159,0.597,9.338,-3.235,-1.587
0.805,0.198,0.604,8.423,-3.601,-3.235
0.830,0.205,0.600,10.864,-9.827,-6.897
0.855,0.246,0.635,16.907,-16.113,-7.812
0.937,0.339,0.709,27.283,-24.841,-8.423
1.042,0.401,0.766,33.264,-39.795,0.793
1.028,0.489,0.783,41.199,-48.828,11.902
0.868,0.615,0.796,48.584,-58.472,16.296
0.633,0.670,0.811,43.823,-85.388,-7.324
0.557,0.615,0.928,15.259,-112.732,-27.344
0.466,0.525,0.859,24.536,-70.923,-26.794
0.415,0.391,0.765,54.138,-41.016,-41.321
0.408,0.289,0.868,48.096,-60.120,-62.439
0.398,0.143,0.805,15.930,-77.148,-93.201
0.364,-0.065,0.708,54.321,-28.381,-112.427
0.286,-0.340,0.701,43.762,-27.344,-120.605
0.166,-0.596,0.492,7.690,-36.377,-140.686
0.147,-0.986,0.430,38.269,-29.480,-166.565
0.298,-1.280,0.584,26.855,-54.810,-183.044
0.487,-1.272,0.617,8.423,-50.171,-158.691
0.595,-0.958,0.618,23.987,-12.268,-102.112
0.371,-0.675,0.625,28.320,28.015,-26.550
0.117,-0.538,0.814,16.541,-26.611,-18.921
-0.022,-0.457,0.904,11.047,-38.269,-20.081
0.081,-0.462,0.892,14.648,-5.066,-15.198
0.248,-0.505,0.797,9.949,-4.822,-14.526
0.161,-0.497,0.876,17.151,-6.042,-4.944
0.185,-0.514,0.896,13.916,3.723,-8.362
0.295,-0.553,0.869,3.723,-2.136,-2.930
0.217,-0.526,0.918,-2.686,-15.564,-1.160
0.194,-0.503,0.892,-0.732,-3.479,-0.488
0.255,-0.530,0.859,0.854,-0.366,-0.427
0.241,-0.531,0.861,-4.028,-3.601,2.014
0.212,-0.493,0.837,-6.104,-1.343,4.639
0.178,-0.497,0.861,-2.319,-0.793,3.479
0.179,-0.510,0.872,0.183,4.272,3.235
0.231,-0.522,0.868,-2.258,6.653,5.920
0.278,-0.542,0.873,-5.005,0.488,9.949
0.302,-0.586,0.894,-4.639,0.793,13.489
0.294,-0.579,0.888,-3.967,14.038,28.320
0.232,-0.541,0.837,-3.845,24.353,38.574
0.224,-0.529,0.801,-3.845,16.846,33.569
0.266,-0.560,0.757,-4.944,14.709,35.706
0.254,-0.511,0.749,-8.240,17.883,52.124
0.211,-0.537,0.750,-6.470,16.235,50.720
0.262,-0.592,0.743,-10.864,1.221,32.043
0.355,-0.502,0.764,-6.775,10.376,44.434
0.311,-0.493,0.717,-3.967,35.034,67.932
0.291,-0.523,0.696,-16.907,30.212,50.049
0.409,-0.356,0.725,-20.142,27.527,40.527
0.418,-0.386,0.671,-18.494,36.743,47.852
0.431,-0.383,0.665,-25.513,29.114,37.354
0.579,-0.234,0.763,-16.724,30.273,31.189
0.509,-0.251,0.743,-25.146,45.105,40.894
0.506,-0.226,0.716,-25.757,48.950,39.001
0.681,-0.061,0.655,1.953,40.955,55.664
0.651,-0.084,0.645,8.911,34.790,67.505
0.662,-0.041,0.747,-4.272,39.734,39.612
0.748,0.010,0.754,-8.362,49.133,49.683
0.693,-0.018,0.776,-21.301,44.800,47.485
0.711,0.037,0.784,-19.165,45.532,43.823
0.754,-0.002,0.728,-13.855,54.810,47.119
0.789,-0.014,0.721,-19.653,47.974,46.753
0.780,0.075,0.661,-16.479,60.730,59.204
0.737,0.093,0.628,-13.245,67.993,53.650
0.775,0.106,0.605,-21.545,55.969,46.143
0.784,0.214,0.595,-27.222,48.279,50.903
0.825,0.325,0.552,-16.785,64.514,49.133
0.969,0.456,0.612,2.380,57.983,32.471
1.083,0.481,0.751,21.790,11.780,12.024
1.074,0.253,0.744,20.813,-27.710,-1.221
0.941,0.010,0.623,6.348,-33.325,4.883
0.836,-0.020,0.529,2.625,-8.606,16.357
0.787,-0.026,0.527,5.371,6.531,10.437
0.758,0.013,0.591,9.033,-3.784,0.793
0.778,0.050,0.646,10.315,-12.878,-5.371
0.789,0.054,0.651,8.362,-3.113,-3.967
0.781,0.046,0.628,3.479,5.554,-0.977
0.814,0.027,0.563,-8.484,0.916,-5.554
0.856,0.026,0.539,-9.033,-1.648,-8.545
0.879,0.048,0.592,-10.376,-5.737,-7.568
0.866,0.062,0.612,-9.827,-2.380,-1.465
0.873,0.074,0.589,-10.986,0.305,0.244
0.844,0.077,0.576,-10.986,-1.282,2.747
0.807,0.083,0.561,-12.695,0.854,5.005
0.783,0.094,0.555,-10.986,4.700,3.601
0.791,0.115,0.557,-8.911,4.395,0.793
0.804,0.120,0.548,-6.409,1.343,-2.319
0.820,0.109,0.563,-8.850,-1.770,-5.432
0.830,0.100,0.560,-8.484,2.136,-3.906
0.840,0.101,0.534,-8.423,3.357,-4.028
0.835,0.098,0.531,-4.395,1.770,-4.028
0.829,0.102,0.546,-3.418,0.671,-4.211
0.825,0.096,0.553,-4.883,0.549,-4.822
0.830,0.091,0.571,-3.601,0.183,-4.517
0.843,0.092,0.574,-5.554,0.122,-5.737
0.841,0.090,0.572,-6.226,-1.221,-5.920
0.834,0.091,0.577,-7.507,-1.953,-5.005
0.841,0.091,0.556,-7.568,0.000,-4.639
0.852,0.094,0.535,-5.554,0.977,-2.563
0.832,0.100,0.548,-3.723,0.244,-0.854
0.822,0.096,0.565,-3.113,0.916,-1.648
0.818,0.090,0.561,-3.296,0.244,-2.014
0.822,0.082,0.572,-3.967,0.000,-3.113
0.829,0.085,0.568,-5.615,-0.854,-2.991
0.841,0.089,0.565,-5.737,-0.366,-3.784
0.847,0.090,0.562,-5.981,-0.488,-3.723
0.849,0.092,0.563,-6.287,-0.610,-2.747
0.843,0.097,0.565,-5.859,1.709,-0.366
0.840,0.099,0.550,-5.615,1.160,-0.610
0.851,0.092,0.539,-4.395,-1.831,-2.441
0.854,0.090,0.548,-3.540,-0.549,-0.244
0.833,0.101,0.553,-3.479,0.244,0.793
0.829,0.105,0.554,-3.357,-1.160,-0.854
0.829,0.101,0.549,-1.892,-0.916,0.244
0.823,0.097,0.553,-0.977,-0.427,-1.587
0.835,0.098,0.567,-0.854,-1.831,-2.563
0.831,0.099,0.566,-1.770,-0.366,-1.343
0.837,0.092,0.561,-3.235,-1.465,-1.709
0.832,0.101,0.554,-3.784,-2.258,-1.648
0.828,0.105,0.550,-2.319,-1.160,-1.282
0.830,0.098,0.556,-1.282,-0.549,-1.953
0.832,0.096,0.569,-1.709,-2.441,-2.319

0.828,0.099,0.566,-0.427,-0.305,-0.183
0.826,0.105,0.569,-0.305,-0.305,0.427
0.837,0.098,0.571,-0.488,-0.732,-0.610
0.829,0.103,0.568,-0.793,-0.122,1.038
0.825,0.105,0.562,-0.732,-0.122,0.244
0.833,0.104,0.565,-0.549,-0.610,0.427
0.833,0.107,0.557,-0.427,0.122,1.160
0.827,0.107,0.565,0.061,-0.122,0.732
0.828,0.106,0.566,0.122,-0.793,0.610
0.828,0.104,0.566,0.366,-0.244,0.488
0.828,0.104,0.569,0.122,-0.488,0.488
0.821,0.111,0.570,-0.122,-0.061,0.610
0.806,0.116,0.566,0.610,0.549,-0.427
0.821,0.108,0.572,0.244,-0.488,-1.160
0.823,0.117,0.564,0.244,1.099,-1.099
0.833,0.106,0.559,0.427,0.610,-1.648
0.826,0.106,0.559,1.099,0.549,-1.160
0.817,0.115,0.561,1.587,1.404,-1.404
0.811,0.121,0.571,1.892,0.977,-2.502
0.823,0.127,0.561,2.319,0.610,-3.906
0.833,0.123,0.561,2.930,-2.197,-6.104
0.839,0.135,0.565,4.761,-3.845,-6.165
0.876,0.188,0.604,10.010,-0.916,-5.432
0.931,0.249,0.643,11.841,-6.836,-5.798
0.984,0.331,0.692,19.348,-15.015,-0.549
0.929,0.404,0.732,28.992,-15.381,11.414
0.871,0.466,0.759,34.668,-19.287,10.437
0.828,0.481,0.726,22.522,-52.185,-11.414
0.895,0.389,0.768,30.823,-76.965,-26.062
0.824,0.365,0.801,39.063,-60.608,-7.446
0.734,0.325,0.749,48.340,-36.926,-10.010
0.718,0.240,0.706,46.570,-52.429,-35.400
0.729,0.129,0.697,34.790,-69.458,-44.495
0.556,0.114,0.666,36.499,-49.866,-31.311
0.476,0.009,0.612,52.124,-22.400,-47.241
0.588,-0.206,0.637,45.776,-31.250,-58.044
0.600,-0.293,0.645,2.747,-52.612,-50.598
0.503,-0.327,0.519,25.085,-31.128,-71.960
0.521,-0.469,0.633,46.509,-28.015,-93.018
0.554,-0.563,0.697,17.273,-31.311,-76.355
0.477,-0.557,0.632,4.517,-45.349,-84.167
0.496,-0.590,0.686,11.719,-36.560,-85.144
0.481,-0.569,0.657,3.723,-8.606,-60.547
0.375,-0.511,0.613,4.150,2.136,-53.528
0.277,-0.424,0.589,4.700,-17.273,-60.425
0.217,-0.482,0.690,2.625,-50.415,-86.975
0.288,-0.598,0.796,11.230,-37.048,-80.811
0.383,-0.668,0.789,16.541,-8.240,-59.021
0.341,-0.602,0.813,17.334,9.094,-36.194
0.288,-0.534,0.793,5.920,6.287,-27.771
0.304,-0.567,0.790,1.465,-15.442,-36.011
0.347,-0.629,0.856,12.207,-20.386,-24.963
0.267,-0.611,0.953,12.207,-14.648,-5.737
0.222,-0.535,0.837,-0.916,-2.380,-1.465
0.236,-0.534,0.833,-0.061,-16.541,-6.531
0.197,-0.526,0.907,3.174,-11.475,-2.625
0.227,-0.509,0.855,-0.244,-0.671,2.441
0.243,-0.498,0.808,0.488,1.709,0.183
0.300,-0.531,0.820,2.075,-7.141,-5.188
0.236,-0.543,0.877,-1.099,-11.536,-1.038
0.167,-0.520,0.867,-5.127,-0.244,1.343
0.227,-0.525,0.839,0.977,11.169,4.028
0.279,-0.590,0.877,2.869,6.531,2.808
0.298,-0.638,0.930,-4.150,-7.019,3.479
0.280,-0.631,0.896,-10.864,1.770,18.738
0.268,-0.567,0.804,-9.033,16.052,34.241
0.236,-0.534,0.776,-1.831,17.395,34.729
0.228,-0.518,0.794,-3.479,6.348,25.757
0.241,-0.539,0.760,0.366,7.324,25.330
0.281,-0.535,0.766,-1.099,14.221,31.067
0.288,-0.554,0.757,-7.202,10.742,33.813
0.317,-0.586,0.713,-10.376,7.751,32.959
0.352,-0.530,0.712,-4.150,16.602,41.321
0.338,-0.498,0.705,-4.700,18.372,44.373
0.375,-0.566,0.719,-18.372,5.310,38.818
0.419,-0.463,0.734,-20.935,6.714,42.786
0.449,-0.531,0.670,-16.907,27.405,42.542
0.434,-0.570,0.682,-34.546,11.597,37.292
0.480,-0.394,0.704,-31.006,20.508,44.678
0.426,-0.389,0.646,-30.334,32.288,52.002
0.417,-0.349,0.646,-38.696,36.194,44.617
0.557,-0.120,0.645,-36.011,53.833,43.945
0.557,-0.163,0.561,-45.044,51.575,45.532
0.624,-0.059,0.693,-37.109,30.823,33.081
0.777,-0.028,0.723,-32.715,42.053,38.025
0.661,-0.059,0.723,-37.170,46.570,46.265
0.737,-0.005,0.720,-38.879,62.439,44.983
0.641,0.148,0.657,-35.095,85.693,64.575
0.641,0.225,0.693,-23.743,90.271,40.710
0.763,0.344,0.777,-37.781,47.180,15.076
0.804,0.330,0.771,-39.795,46.753,13.306
0.843,0.318,0.735,-35.583,55.908,7.935
0.965,0.448,0.741,-18.555,54.382,14.404
1.191,0.709,0.892,-5.188,31.128,18.799
1.086,0.482,0.752,-21.851,4.761,36.560
0.839,0.219,0.537,-9.766,1.343,40.283
0.703,0.054,0.530,15.259,-18.127,7.874
0.777,-0.078,0.638,9.949,-27.405,-12.146
0.782,-0.062,0.604,5.676,-1.465,0.061
0.771,0.038,0.599,10.803,18.921,4.639
0.805,0.108,0.593,10.925,10.559,1.160
0.817,0.131,0.624,9.521,2.686,-2.380
0.793,0.110,0.630,5.371,0.366,-1.953
0.777,0.071,0.583,-0.244,0.610,-2.197
0.821,0.043,0.539,0.488,3.418,-4.883
0.876,0.037,0.568,2.258,-2.075,-7.935
0.893,0.050,0.595,2.319,-4.150,-3.662
0.870,0.057,0.630,2.869,-1.709,2.563
0.818,0.055,0.617,-0.854,-2.319,5.188
0.777,0.055,0.600,-1.282,-3.906,3.052
0.753,0.068,0.597,-1.770,-1.221,1.831
0.768,0.076,0.610,-1.221,-1.343,-1.526
0.802,0.076,0.628,-1.038,-2.136,-3.113
0.831,0.068,0.623,-3.601,-0.122,-2.258
0.852,0.055,0.607,-7.385,-3.113,-3.174
0.859,0.061,0.589,-8.667,-6.470,-0.610
0.825,0.079,0.576,-5.432,-0.671,4.578
0.807,0.084,0.581,-3.845,-1.587,4.822
0.786,0.100,0.596,-2.502,-3.113,6.104
0.766,0.112,0.589,-2.197,0.305,3.540
0.782,0.105,0.591,-1.404,-1.465,-1.160
0.809,0.097,0.588,-1.038,-2.380,-1.343
0.821,0.092,0.590,0.366,-0.061,0.366
0.809,0.094,0.596,0.671,-0.549,2.075
0.794,0.093,0.599,1.221,-0.061,1.648

0.787,0.099,0.608,-0.793,0.122,-1.343
0.792,0.100,0.608,-0.366,0.305,-1.465
0.808,0.092,0.604,0.305,-0.183,-1.221
0.804,0.097,0.609,0.488,0.183,-0.305
0.790,0.109,0.608,0.977,1.221,-0.305
0.801,0.101,0.609,1.221,-0.977,-1.953
0.795,0.099,0.630,0.793,-5.615,-3.540
0.793,0.077,0.650,-0.366,-10.193,-6.409
0.776,0.075,0.668,-0.671,-9.644,-5.920
0.784,0.099,0.641,1.099,0.061,-3.784
0.816,0.132,0.621,1.892,0.244,-4.883
0.838,0.168,0.624,5.554,-3.662,-6.165
0.909,0.188,0.660,8.606,-10.376,-7.324
0.931,0.227,0.690,13.977,-16.235,-1.221
0.890,0.287,0.724,20.264,-21.118,5.188
0.830,0.285,0.736,28.137,-23.987,11.292
0.751,0.285,0.771,29.114,-29.480,13.489
0.743,0.247,0.754,28.809,-33.691,5.859
0.780,0.176,0.748,32.593,-40.466,-4.395
0.810,0.125,0.768,28.625,-49.194,-0.183
0.757,0.109,0.760,30.518,-34.668,9.033
0.692,0.137,0.761,40.710,-20.020,8.606
0.667,0.106,0.783,34.790,-21.118,2.136
0.680,0.075,0.737,17.761,-37.292,-10.376
0.676,0.047,0.713,33.813,-24.780,-10.742
0.645,0.029,0.759,41.443,-9.827,-9.583
0.598,0.053,0.745,17.334,-24.841,-19.836
0.606,0.005,0.636,24.414,-34.851,-38.086
0.627,-0.099,0.680,45.166,-20.386,-36.438
0.599,-0.142,0.736,34.485,-9.583,-24.902
0.544,-0.130,0.665,30.457,-6.958,-29.358
0.581,-0.231,0.644,39.429,-6.042,-39.063
0.585,-0.261,0.684,32.104,-7.507,-35.583
0.510,-0.233,0.661,20.264,-14.893,-37.781
0.487,-0.256,0.640,23.132,-24.170,-54.016
0.491,-0.326,0.685,28.015,-27.039,-59.753
0.419,-0.356,0.704,23.437,-27.039,-61.096
0.407,-0.392,0.692,21.851,-25.085,-68.909
0.390,-0.450,0.697,17.517,-34.180,-74.341
0.374,-0.494,0.742,15.747,-42.480,-83.130
0.373,-0.536,0.728,14.893,-36.438,-82.153
0.321,-0.569,0.761,24.658,-23.560,-68.298
0.315,-0.596,0.738,25.085,-11.658,-64.514
0.320,-0.661,0.758,18.066,-24.963,-69.275
0.331,-0.721,0.838,12.451,-38.330,-67.017
0.305,-0.695,0.880,6.775,-25.757,-41.992
0.224,-0.608,0.821,11.230,7.935,-14.099
0.127,-0.538,0.811,10.254,-0.732,-19.043
0.133,-0.544,0.845,-2.319,-27.344,-34.729
0.183,-0.611,0.864,2.625,-24.597,-31.433
0.156,-0.598,0.895,9.705,-4.639,-16.968
0.176,-0.595,0.866,7.874,10.132,-9.644
0.231,-0.605,0.808,1.526,0.977,-10.376
0.215,-0.601,0.853,-0.366,-11.414,-11.780
0.203,-0.591,0.867,-1.648,-4.761,-2.441
0.187,-0.580,0.847,-3.113,0.366,-0.122
0.182,-0.568,0.832,-2.930,2.686,1.465
0.199,-0.586,0.846,-5.005,-4.395,0.061
0.189,-0.583,0.842,-7.263,-7.263,3.235
0.195,-0.609,0.848,-6.409,-5.920,5.554
0.205,-0.624,0.870,-8.301,-3.418,10.864
0.194,-0.619,0.852,-9.888,1.465,21.423
0.173,-0.585,0.827,-11.475,2.136,28.381
0.164,-0.587,0.816,-14.648,-6.714,28.015
0.180,-0.583,0.791,-19.165,-9.827,32.349
0.156,-0.532,0.749,-13.367,-2.991,45.105
0.110,-0.570,0.817,-6.897,-8.362,43.884
0.099,-0.529,0.864,-13.428,-8.118,42.786
0.099,-0.490,0.818,-10.071,10.071,44.189
0.139,-0.515,0.784,-4.456,17.334,33.508
0.244,-0.593,0.791,-6.958,6.226,18.616
0.313,-0.541,0.817,-11.169,9.460,31.982
0.280,-0.574,0.762,-9.705,31.006,51.270
0.286,-0.522,0.758,-13.855,25.757,53.040
0.279,-0.415,0.795,-12.329,32.715,51.270
0.316,-0.423,0.763,-23.926,24.109,40.100
0.370,-0.389,0.748,-30.334,17.883,31.250
0.431,-0.330,0.782,-28.015,22.034,28.687
0.395,-0.329,0.796,-32.471,31.616,30.945
0.419,-0.229,0.760,-36.377,45.959,28.687
0.486,-0.133,0.710,-37.781,42.236,22.888
0.495,-0.181,0.745,-48.706,16.174,2.625
0.568,-0.148,0.745,-54.565,15.076,-3.479
0.629,-0.126,0.716,-38.147,26.672,7.690
0.576,-0.141,0.813,-31.738,29.541,11.475
0.564,-0.049,0.852,-27.710,41.016,14.893
0.611,-0.081,0.812,-28.259,44.128,16.052
0.580,-0.113,0.815,-29.114,35.339,8.850
0.619,-0.054,0.812,-18.311,54.565,12.695
0.674,-0.015,0.762,-12.268,70.251,19.104
0.671,-0.021,0.760,-17.334,59.814,12.451
0.687,0.008,0.710,-21.057,56.396,8.606
0.759,0.009,0.642,-14.465,65.308,9.399
0.772,0.000,0.660,-16.296,54.871,2.991
0.778,0.007,0.661,-22.278,46.936,2.930
0.762,0.060,0.666,-20.508,56.885,9.399
0.824,0.135,0.680,-14.465,59.631,6.653
0.914,0.227,0.680,-10.132,45.837,4.944
0.955,0.232,0.716,3.296,14.160,-3.357
0.957,0.151,0.787,25.879,-16.968,-16.846
0.961,-0.035,0.847,14.526,-33.569,-21.118
0.974,-0.148,0.724,-0.061,-26.367,-7.141
0.921,-0.194,0.671,-1.038,-13.245,7.080
0.820,-0.140,0.634,-4.089,1.648,22.095
0.708,-0.081,0.603,-2.380,3.235,22.278
0.667,-0.066,0.628,-2.075,-8.057,11.963
0.666,-0.067,0.660,0.000,-9.705,3.723
0.696,-0.071,0.688,-3.662,-5.493,-2.502
0.754,-0.069,0.679,-8.301,-4.150,-4.333
0.790,-0.043,0.651,-8.545,-0.366,-0.854
0.807,-0.023,0.621,-6.165,4.333,1.709
0.795,-0.019,0.625,-4.089,1.038,1.648
0.778,-0.026,0.651,-4.333,-6.409,-0.916
0.764,-0.022,0.643,-4.883,-6.104,-0.427
0.751,-0.027,0.656,-1.892,-2.930,0.916
0.739,-0.027,0.654,-2.502,-4.028,-0.122
0.738,-0.031,0.659,-3.113,-5.920,-3.845
0.759,-0.042,0.662,-3.357,-7.263,-5.005
0.761,-0.047,0.670,-1.099,-2.563,-2.258
0.769,-0.037,0.677,-2.258,-0.732,-0.488
0.756,-0.021,0.653,-1.160,1.465,1.648
0.748,-0.015,0.655,0.000,0.549,-0.610
0.763,-0.032,0.664,0.488,-1.282,-1.831
0.757,-0.030,0.656,0.000,-0.244,0.061
0.766,-0.040,0.660,1.526,0.183,-1.526

0.745,-0.031,0.668,-0.488,0.305,0.061
0.748,-0.035,0.667,-0.488,-0.061,-1.038
0.764,-0.041,0.666,-0.732,-0.488,-1.099
0.765,-0.039,0.666,-1.221,-1.831,-1.465
0.765,-0.039,0.679,-1.282,-1.709,0.061
0.743,-0.027,0.674,-0.122,1.465,1.221
0.739,-0.027,0.667,-0.366,0.183,-0.549
0.756,-0.038,0.669,-0.061,-1.160,-0.977
0.756,-0.038,0.662,0.671,1.709,0.183
0.763,-0.042,0.669,0.366,-0.793,-0.366
0.763,-0.044,0.679,-0.488,-0.671,0.854
0.757,-0.037,0.678,-0.854,0.793,2.319
0.744,-0.031,0.675,-0.610,0.671,2.625
0.750,-0.033,0.672,-0.916,-0.122,0.305
0.756,-0.039,0.670,-0.854,0.122,-0.122
0.752,-0.036,0.675,-0.916,-0.610,-0.305
0.753,-0.030,0.667,-0.610,0.671,0.610
0.754,-0.030,0.659,-0.732,0.366,0.183
0.761,-0.030,0.671,-0.305,-0.793,-0.488
0.756,-0.022,0.668,0.671,0.488,-0.305
0.758,-0.029,0.671,0.854,0.244,-0.549
0.757,-0.036,0.673,0.061,-0.549,0.122
0.754,-0.036,0.672,-0.305,-0.854,0.793
0.753,-0.030,0.668,0.549,-0.061,0.061
0.755,-0.024,0.661,1.099,0.793,0.305
0.769,-0.037,0.674,1.160,-0.916,-0.427
0.766,-0.037,0.682,1.404,-0.183,0.977
0.756,-0.023,0.675,1.465,0.916,1.160
0.760,-0.007,0.679,2.625,-0.854,-0.061
0.782,0.000,0.685,4.517,-2.686,-0.732
0.814,0.003,0.724,5.859,-5.066,0.427
0.842,0.021,0.767,5.249,-7.690,1.892
0.909,0.039,0.769,5.005,-12.146,8.850
0.900,0.085,0.740,10.193,-14.587,19.775
0.855,0.181,0.741,20.386,-16.846,25.757
0.788,0.300,0.802,24.109,-42.114,15.869
0.793,0.276,0.943,19.104,-66.284,5.066
0.815,0.272,0.924,21.179,-49.988,18.494
0.785,0.281,0.841,30.396,-31.860,27.100
0.761,0.276,0.786,28.625,-42.236,13.062
0.799,0.171,0.781,19.897,-78.186,-8.118
0.683,0.131,0.766,28.259,-58.716,6.714
0.516,0.134,0.735,40.955,-37.048,1.709
0.456,0.028,0.785,56.824,-39.246,-30.029
0.474,-0.041,0.875,35.583,-58.716,-45.349
0.406,-0.077,0.796,31.311,-37.109,-42.175
0.363,-0.154,0.726,39.063,-19.470,-59.448
0.317,-0.262,0.756,20.020,-48.828,-84.412
0.271,-0.384,0.733,6.714,-54.810,-97.229
0.216,-0.492,0.589,18.982,-14.648,-94.116
0.203,-0.659,0.539,18.921,-15.686,-107.178
0.243,-0.707,0.564,14.038,-21.118,-111.389
0.227,-0.716,0.549,14.465,-9.705,-97.168
0.181,-0.688,0.614,24.963,-17.212,-86.670
0.242,-0.718,0.731,32.959,-26.672,-73.486
0.269,-0.740,0.905,28.748,-33.447,-47.241
0.159,-0.649,0.968,18.677,2.014,-7.935
0.038,-0.509,0.915,10.986,13.672,-0.305
0.055,-0.444,0.841,6.775,12.939,-8.850
0.228,-0.555,0.860,5.981,-6.104,-13.428
0.270,-0.620,0.958,2.380,-4.639,2.502
0.150,-0.530,0.901,-6.409,8.972,13.733
0.135,-0.521,0.834,-4.150,-0.549,5.127
0.162,-0.604,0.903,-0.549,-0.427,10.742
0.198,-0.676,0.906,-4.883,-1.343,15.503
0.220,-0.683,0.849,-14.099,2.014,36.438
0.172,-0.683,0.759,-12.573,16.296,62.439
0.176,-0.774,0.645,-9.949,18.372,67.871
0.209,-0.668,0.644,-12.817,12.695,79.651
0.142,-0.500,0.684,-25.635,3.174,91.370
0.112,-0.459,0.684,-42.603,-14.221,72.327
0.227,-0.328,0.757,-27.100,-2.502,57.922
0.297,-0.335,0.735,-20.325,23.315,59.082
0.273,-0.328,0.748,-30.518,21.301,48.096
0.395,-0.166,0.812,-22.583,28.198,35.217
0.396,-0.205,0.787,-26.245,31.921,34.912
0.448,-0.136,0.804,-25.391,42.053,25.574
0.590,-0.002,0.787,-11.475,73.792,33.020
0.522,-0.086,0.734,-31.799,58.838,34.302
0.562,-0.119,0.728,-43.152,43.457,12.146
0.602,-0.029,0.727,-33.508,63.904,24.170
0.575,0.024,0.702,-19.348,97.778,29.297
0.619,0.056,0.740,-26.184,98.572,17.639
0.735,0.188,0.737,-53.833,84.351,10.498
0.792,0.178,0.695,-48.523,78.125,-3.052
0.883,0.157,0.756,-39.185,75.012,-5.188
0.933,0.153,0.710,-46.692,73.303,2.563
0.971,0.188,0.637,-36.438,65.369,2.319
1.055,0.237,0.646,-23.987,48.645,12.268
1.073,0.322,0.656,-10.010,29.785,12.268
1.074,0.320,0.714,9.155,1.831,7.385
1.029,0.166,0.756,13.184,-15.320,3.784
0.971,-0.005,0.694,6.592,-20.874,2.686
0.886,-0.054,0.596,0.793,-12.085,12.512
0.801,-0.041,0.548,1.587,-4.578,16.724
0.725,-0.009,0.542,2.014,-4.944,16.602
0.695,-0.002,0.559,1.343,-7.202,8.301
0.688,0.011,0.594,1.282,-11.597,2.258
0.699,0.028,0.620,2.869,-7.812,-1.709
0.743,0.024,0.632,2.808,-0.305,-5.676
0.802,0.016,0.633,0.427,1.038,-7.080
0.862,-0.004,0.618,-3.662,-2.014,-8.789
0.886,-0.013,0.616,-4.211,-4.517,-5.615
0.855,0.007,0.624,-2.380,-0.793,1.709
0.800,0.039,0.608,-1.648,2.258,6.165
0.780,0.038,0.613,-1.099,-0.549,3.723
0.791,0.024,0.608,-2.075,-2.319,1.038
0.779,0.034,0.608,-1.221,-0.244,1.770
0.785,0.031,0.613,-1.526,-2.380,-1.404
0.787,0.034,0.615,-1.465,-2.625,-2.808
0.784,0.043,0.626,-3.418,-3.967,-3.174
0.786,0.040,0.634,-4.272,-3.174,-2.380
0.794,0.040,0.609,-2.686,1.343,-2.075
0.810,0.038,0.597,-0.854,0.305,-1.770
0.817,0.029,0.602,-0.244,-0.610,-0.916
0.807,0.033,0.607,-0.122,1.526,0.427
0.809,0.027,0.601,1.709,-0.732,-0.305
0.814,0.020,0.607,2.075,-2.319,1.648
0.789,0.028,0.614,3.479,-0.854,3.296
0.781,0.023,0.628,2.258,-0.854,1.587
0.782,0.018,0.622,1.282,-1.770,0.244
0.794,0.013,0.619,1.587,-0.183,-1.404
0.805,0.006,0.624,0.793,-1.892,-1.892
0.812,0.009,0.624,-0.977,-3.784,-0.977
0.804,0.020,0.624,0.183,0.366,1.160

0.798,0.050,0.636,1.648,3.418,1.404
0.816,0.055,0.629,1.526,2.380,0.244
0.816,0.059,0.620,0.977,0.305,0.122
0.807,0.059,0.614,1.221,-0.732,0.366
0.801,0.055,0.605,2.686,-0.854,0.732
0.807,0.052,0.602,4.517,-2.930,0.305
0.806,0.046,0.619,2.747,-2.930,1.160
0.793,0.042,0.620,2.808,-2.075,1.587
0.781,0.045,0.610,2.563,-1.770,0.916
0.794,0.047,0.599,4.517,-4.395,-1.465
0.801,0.066,0.622,6.531,-2.808,-0.549
0.811,0.093,0.608,8.362,-3.601,-0.244
0.818,0.091,0.619,13.062,-9.766,-0.366
0.828,0.102,0.654,16.296,-11.841,0.977
0.849,0.138,0.684,19.958,-14.954,1.221
0.891,0.143,0.706,23.254,-25.574,1.648
0.959,0.161,0.742,25.818,-31.860,4.761
0.981,0.254,0.753,31.433,-33.875,17.517
0.968,0.362,0.760,44.006,-35.278,27.832
0.851,0.431,0.764,47.668,-54.260,26.367
0.788,0.394,0.805,53.406,-78.918,9.399
0.781,0.338,0.896,52.673,-88.257,5.493
0.724,0.325,0.830,44.434,-74.951,3.357
0.623,0.321,0.739,45.593,-85.449,-18.311
0.519,0.181,0.769,69.763,-92.712,-54.138
0.492,0.024,0.873,60.425,-92.834,-60.059
0.253,-0.055,0.750,28.320,-74.463,-46.875
0.168,-0.162,0.678,36.865,-54.687,-89.600
0.157,-0.394,0.571,22.278,-80.872,-125.122
0.015,-0.655,0.536,19.958,-97.778,-127.686
-0.054,-0.938,0.584,40.649,-89.661,-145.386
0.114,-1.031,0.783,43.335,-86.426,-149.414
0.082,-0.939,0.813,36.377,-25.940,-95.215
0.010,-0.801,0.741,33.081,20.508,-58.960
0.130,-0.731,0.700,31.189,41.992,-27.527
0.104,-0.607,0.749,28.625,37.048,3.357
-0.026,-0.557,0.863,28.748,23.376,-3.479
0.022,-0.557,0.919,7.874,-0.610,-24.414
0.105,-0.578,0.867,-1.953,-12.573,-17.273
0.159,-0.627,0.919,4.639,-12.268,-7.629
0.139,-0.572,0.949,4.211,11.719,11.963
0.068,-0.489,0.852,-4.944,12.695,21.423
0.057,-0.459,0.778,-7.446,-5.432,9.155
0.076,-0.517,0.821,-4.700,-15.320,3.662
0.092,-0.602,0.912,-2.014,-14.221,8.240
0.100,-0.600,0.902,-8.667,-3.540,27.283
0.060,-0.570,0.835,-12.817,4.761,43.030
0.061,-0.562,0.805,-11.475,6.165,48.340
0.084,-0.584,0.757,-7.874,15.320,61.462
0.107,-0.596,0.773,-14.099,9.705,69.885
0.108,-0.560,0.793,-25.757,-4.700,61.218
0.119,-0.590,0.801,-32.104,-16.174,52.002
0.161,-0.476,0.860,-31.189,2.197,52.856
0.163,-0.447,0.771,-45.227,10.681,47.180
0.207,-0.452,0.786,-46.631,2.563,38.391
0.265,-0.341,0.881,-27.893,23.010,41.443
0.250,-0.357,0.845,-39.795,35.339,39.185
0.325,-0.192,0.836,-45.837,41.931,36.255
0.414,-0.069,0.786,-40.771,51.392,32.227
0.378,-0.125,0.787,-46.631,24.658,18.127
0.447,-0.114,0.902,-33.081,27.100,12.756
0.504,-0.106,0.933,-27.405,51.453,24.536
0.448,-0.053,0.919,-35.156,59.204,24.170
0.510,0.008,0.867,-41.138,60.669,16.235
0.568,0.078,0.803,-34.790,54.016,17.395
0.526,0.100,0.826,-31.921,50.049,13.550
0.536,0.222,0.899,-26.978,58.228,15.137
0.581,0.194,0.901,-33.020,59.387,-0.671
0.616,0.203,0.932,-28.870,56.030,-5.005
0.715,0.227,0.854,-34.912,67.810,-3.540
0.796,0.229,0.748,-31.494,64.758,-0.977
0.857,0.216,0.743,-18.494,52.246,1.831
0.861,0.240,0.789,-12.634,34.058,11.353
0.765,0.254,0.784,-6.653,29.480,23.682
0.697,0.211,0.761,1.892,20.508,16.968
0.692,0.098,0.746,-0.366,-5.859,1.526
0.689,0.025,0.738,-2.502,-16.785,-0.427
0.661,0.016,0.725,2.258,0.122,3.723
0.624,0.029,0.715,1.038,2.808,0.183
0.649,0.019,0.708,0.732,-1.343,-7.385
0.664,0.025,0.705,0.549,2.319,-6.104
0.675,0.044,0.714,3.540,7.385,-4.517
0.679,0.053,0.719,2.563,5.249,-4.883
0.701,0.037,0.729,2.502,3.662,-9.216
0.734,0.011,0.743,0.793,-2.625,-13.000
0.751,-0.005,0.739,1.099,-1.648,-8.240
0.754,-0.005,0.729,3.479,2.808,-3.113
0.737,-0.001,0.747,1.465,-1.404,-2.014
0.723,0.006,0.753,-0.366,-2.319,0.366
0.714,0.014,0.748,-1.282,-1.709,1.465
0.707,0.020,0.741,-1.465,-1.770,1.892
0.693,0.025,0.734,-1.221,-1.953,2.502
0.682,0.021,0.732,-0.732,-1.343,3.174
0.672,0.021,0.732,-1.770,-0.916,3.601
0.671,0.023,0.721,-1.587,1.343,2.380
0.682,0.024,0.728,-0.061,0.854,-0.549
0.704,0.027,0.742,-1.038,0.488,0.061
0.713,0.038,0.739,-2.075,2.014,1.770
0.711,0.053,0.733,-2.258,2.136,2.869
0.705,0.061,0.714,-0.916,0.977,3.357
0.707,0.046,0.706,0.000,0.488,2.014
0.702,0.032,0.702,0.916,-0.977,2.563
0.689,0.032,0.702,1.770,0.183,3.662
0.688,0.034,0.707,3.296,0.977,2.380
0.703,0.034,0.722,1.221,-3.906,-0.854
0.703,0.029,0.739,2.197,-2.869,0.000
0.713,0.026,0.747,1.648,-1.343,1.282
0.700,0.047,0.740,2.930,0.977,4.578
0.698,0.054,0.725,3.540,2.747,3.540
0.719,0.043,0.729,3.357,-2.625,1.282
0.718,0.042,0.732,4.395,-1.160,3.906
0.725,0.028,0.743,4.333,-1.465,4.028
0.721,0.022,0.747,2.930,-3.662,5.432
0.701,0.032,0.741,2.380,-0.916,6.287
0.693,0.038,0.725,2.747,-0.854,6.714
0.673,0.052,0.722,3.418,-1.953,5.859
0.676,0.055,0.718,3.723,-1.404,5.066
0.677,0.046,0.717,5.066,-0.854,4.333
0.698,0.034,0.715,4.761,-1.343,3.662
0.706,0.026,0.719,2.441,-5.005,1.648
0.706,0.021,0.721,3.723,-4.944,2.747
0.703,0.018,0.730,5.615,-0.916,5.859
0.693,0.026,0.738,6.165,-0.183,7.141
0.676,0.035,0.746,5.615,-1.221,6.775
0.683,0.030,0.757,3.906,-2.075,6.104

0.681,0.066,0.739,3.113,0.244,2.014
0.690,0.065,0.744,2.625,-0.793,2.136
0.682,0.064,0.752,3.357,-0.183,2.991
0.678,0.056,0.763,2.136,-1.038,2.502
0.676,0.059,0.752,1.587,-0.183,3.540
0.670,0.065,0.748,1.953,-0.244,3.479
0.662,0.072,0.750,2.625,-0.854,2.625
0.672,0.067,0.745,2.258,-0.549,1.343
0.675,0.062,0.752,2.258,-0.671,1.221
0.680,0.063,0.743,2.380,0.183,1.892
0.674,0.066,0.744,3.052,0.305,2.625
0.668,0.069,0.749,2.319,0.244,2.075
0.676,0.066,0.751,2.686,-0.305,1.770
0.678,0.066,0.747,3.113,0.244,1.709
0.679,0.064,0.749,2.502,-0.183,1.099
0.684,0.058,0.748,1.892,-2.075,0.244
0.683,0.051,0.745,2.380,-1.099,2.075
0.670,0.065,0.746,3.235,0.305,2.747
0.673,0.075,0.747,3.418,0.000,1.465
0.677,0.075,0.741,4.272,-0.061,1.648
0.688,0.089,0.755,6.714,0.183,1.648
0.706,0.121,0.775,7.935,-0.183,1.892
0.719,0.143,0.842,10.071,-3.296,2.991
0.765,0.227,0.902,8.484,-10.925,2.258
0.800,0.357,0.889,10.620,-20.813,9.644
0.709,0.502,0.874,31.494,-9.399,31.494
0.541,0.613,0.943,51.514,1.404,37.415
0.583,0.570,0.941,32.104,-43.213,-3.540
0.696,0.429,0.969,26.428,-70.679,-22.583
0.671,0.389,0.919,47.852,-31.433,-9.338
0.486,0.365,0.852,56.519,-19.043,-19.531
0.470,0.181,0.834,58.167,-28.748,-69.397
0.563,0.023,0.898,40.527,-38.696,-87.524
0.357,0.027,0.790,25.269,-25.269,-85.388
0.192,-0.237,0.618,29.053,-12.634,-118.958
0.125,-0.559,0.472,16.235,-30.151,-153.442
0.049,-0.873,0.401,16.724,-53.040,-164.185
0.105,-1.104,0.456,34.302,-54.321,-177.551
0.273,-1.144,0.657,29.175,-53.467,-156.616
0.383,-1.050,0.701,21.545,-21.606,-113.525
0.403,-0.782,0.682,18.921,1.221,-53.772
0.208,-0.577,0.643,19.714,13.489,-15.930
0.070,-0.533,0.806,16.785,-18.311,-23.865
0.097,-0.521,0.916,11.841,-16.724,-21.667
0.121,-0.531,0.896,6.592,0.305,-16.174
0.274,-0.583,0.848,6.592,0.793,-10.742
0.283,-0.622,0.921,1.099,-3.906,4.822
0.162,-0.547,0.881,-3.540,7.874,18.677
0.112,-0.489,0.831,-3.174,-0.854,8.850
0.177,-0.541,0.853,1.343,-6.958,3.967
0.219,-0.587,0.913,-1.648,-0.061,15.625
0.206,-0.575,0.900,-6.714,7.507,26.672
0.220,-0.624,0.876,-3.479,21.179,38.391
0.264,-0.702,0.796,0.061,35.522,53.772
0.291,-0.714,0.702,-5.310,36.438,69.397
0.205,-0.743,0.677,-17.639,21.729,94.910
0.104,-0.597,0.694,-10.498,37.231,116.577
0.092,-0.521,0.676,2.258,57.556,108.765
0.248,-0.507,0.719,-8.789,45.959,83.801
0.369,-0.439,0.705,-27.832,34.546,71.289
0.460,-0.451,0.647,-40.649,33.569,56.213
0.569,-0.363,0.679,-29.541,55.237,52.673
0.626,-0.256,0.694,-24.902,80.627,54.199
0.687,-0.192,0.669,-59.265,67.627,44.983
0.781,-0.082,0.573,-63.660,85.876,43.396
0.727,-0.038,0.490,-69.153,87.097,55.420
0.739,0.172,0.498,-61.157,89.661,49.866
0.760,0.227,0.486,-48.279,98.694,48.767
0.832,0.206,0.457,-42.664,103.149,42.725
0.838,0.333,0.461,-41.077,94.360,44.067
0.850,0.423,0.412,-25.208,101.257,45.654
0.904,0.529,0.366,3.296,107.056,43.152
1.045,0.678,0.434,33.508,94.482,31.860
1.240,0.721,0.523,37.231,30.212,4.150
1.308,0.456,0.681,37.537,-36.499,-20.508
1.190,0.097,0.679,6.653,-44.922,-4.150
1.009,0.011,0.454,-20.874,-19.958,17.456
0.907,-0.018,0.317,-8.972,-12.024,18.677
0.836,0.001,0.373,2.502,-14.648,18.555
0.770,0.031,0.428,4.272,-10.925,18.066
0.760,0.058,0.476,0.122,-7.751,15.259
0.795,0.079,0.498,0.122,-7.935,6.165
0.852,0.093,0.518,1.526,-4.639,1.587
0.878,0.120,0.518,1.343,5.188,2.258
0.916,0.129,0.481,-8.118,2.930,2.502
0.933,0.127,0.445,-9.399,3.113,3.174
0.932,0.130,0.447,-7.812,0.671,8.179
0.898,0.151,0.461,-8.850,-1.648,11.719
0.865,0.166,0.502,-7.507,-4.456,10.864
0.858,0.168,0.487,-8.423,-3.357,5.493
0.843,0.176,0.469,-5.554,-0.061,2.991
0.837,0.170,0.450,-5.493,0.488,1.038
0.867,0.151,0.451,-5.981,-4.944,-4.028
0.876,0.146,0.459,-4.944,-4.883,-3.296
0.879,0.157,0.449,-3.906,0.854,-1.343
0.883,0.178,0.433,-1.221,0.916,0.305
0.874,0.181,0.463,-0.854,-2.380,-2.197
0.874,0.174,0.469,-3.784,-3.540,-1.099
0.870,0.170,0.446,-1.709,0.549,-0.549
0.881,0.168,0.442,0.305,0.366,-1.282
0.906,0.175,0.430,1.526,-1.770,-0.427
0.903,0.185,0.433,4.517,-0.671,0.854
0.897,0.163,0.458,4.211,-5.554,-0.122
0.892,0.145,0.470,4.822,-6.775,2.136
0.871,0.155,0.474,7.324,-2.441,3.784
0.857,0.150,0.491,6.470,-1.404,2.869
0.863,0.140,0.502,3.418,-5.737,0.000
0.888,0.128,0.507,0.671,-7.141,-1.770
0.887,0.132,0.501,1.221,-4.578,2.197
0.873,0.153,0.482,2.380,2.014,6.775
0.883,0.159,0.469,2.014,1.404,6.897
0.889,0.164,0.466,2.136,-3.235,6.042
0.887,0.171,0.470,3.052,-2.014,7.507
0.881,0.176,0.469,4.150,-2.258,9.460
0.872,0.182,0.463,6.165,-0.916,10.437
0.863,0.182,0.471,7.812,-2.563,9.583
0.859,0.176,0.478,7.935,-3.662,9.094
0.877,0.183,0.477,9.094,-2.197,10.681
0.879,0.191,0.456,12.939,1.953,14.099
0.860,0.194,0.487,14.709,-0.610,13.000
0.848,0.197,0.494,11.597,-6.348,9.827
0.842,0.187,0.514,12.085,-6.104,8.484
0.833,0.177,0.532,10.559,-6.226,7.324
0.824,0.171,0.539,9.216,-6.836,6.104
0.806,0.183,0.550,7.935,-2.808,8.179

0.808,0.199,0.516,1.892,-2.686,0.244
0.812,0.194,0.531,2.991,-0.305,0.366
0.803,0.182,0.534,3.174,-0.122,-0.427
0.807,0.153,0.575,1.282,-4.150,-3.784
0.805,0.152,0.583,-3.601,-5.676,-4.700
0.818,0.175,0.565,-3.601,1.099,-2.563
0.838,0.196,0.544,-5.493,0.549,-3.479
0.847,0.204,0.551,-5.127,-3.235,-3.174
0.824,0.214,0.542,-3.601,-0.916,-0.549
0.823,0.213,0.551,-1.892,-1.526,-2.258
0.822,0.196,0.547,-2.258,-4.272,-1.648
0.809,0.191,0.555,0.427,-1.648,-0.977
0.813,0.194,0.571,0.671,-2.380,-2.197
0.821,0.202,0.557,1.282,-1.465,-1.038
0.808,0.222,0.553,3.601,1.221,1.038
0.812,0.235,0.551,5.188,0.427,-0.061
0.840,0.269,0.562,8.484,-0.366,-1.648
0.917,0.312,0.599,12.878,0.122,-2.258
0.969,0.324,0.620,15.869,-5.920,-0.916
1.039,0.396,0.664,18.127,-23.437,0.610
1.076,0.562,0.693,23.499,-34.058,9.155
0.963,0.638,0.679,28.870,-48.218,19.836
0.808,0.694,0.787,29.602,-81.909,-0.732
0.722,0.697,0.866,30.640,-108.215,-26.794
0.716,0.596,0.960,25.940,-115.051,-14.709
0.528,0.627,0.938,18.982,-78.857,-5.554
0.429,0.578,0.767,45.166,-28.687,-21.301
0.407,0.456,0.729,23.254,-34.058,-45.959
0.377,0.291,0.586,-22.156,-71.289,-65.186
0.283,-0.066,0.568,-4.578,-45.898,-80.200
0.225,-0.312,0.580,10.864,-5.676,-120.239
0.163,-0.660,0.400,-4.944,-50.354,-173.523
0.253,-0.974,0.495,27.405,-117.126,-215.820
0.342,-1.141,0.850,66.956,-88.440,-195.312
0.510,-1.005,0.738,40.161,-9.705,-146.973
0.658,-0.752,0.564,24.963,22.827,-84.534
0.460,-0.593,0.682,38.696,26.245,-17.761
0.206,-0.451,0.912,31.311,-9.460,3.235
0.131,-0.347,0.875,11.963,-2.136,1.953
0.253,-0.365,0.816,12.390,-6.897,-11.658
0.254,-0.404,0.927,18.555,-15.930,-14.954
0.374,-0.405,0.945,10.193,-6.348,-17.029
0.413,-0.419,0.885,8.118,2.075,-13.672
0.396,-0.380,0.866,10.315,7.202,-8.301
0.391,-0.389,0.859,7.080,0.488,-7.935
0.395,-0.392,0.874,6.653,-0.183,-2.747
0.366,-0.405,0.869,9.338,12.573,5.005
0.386,-0.419,0.863,15.137,30.334,17.029
0.416,-0.467,0.837,18.860,35.889,25.696
0.445,-0.577,0.842,24.536,37.170,37.720
0.397,-0.551,0.734,33.875,69.458,64.636
0.285,-0.520,0.658,38.452,82.886,46.753
0.346,-0.746,0.513,18.799,28.748,13.062
0.570,-0.726,0.620,26.917,23.926,64.270
0.487,-0.813,0.568,32.715,47.852,107.544
0.532,-0.705,0.711,16.296,21.423,96.863
0.621,-0.527,0.690,-6.714,27.222,95.764
0.688,-0.492,0.567,-46.387,17.639,89.050
0.746,-0.294,0.525,-39.185,33.569,95.032
0.677,-0.211,0.501,-44.922,37.537,96.191
0.698,-0.049,0.543,-58.716,19.836,84.534
0.698,0.031,0.460,-50.903,54.016,88.501
0.605,0.085,0.392,-60.730,58.594,90.515
0.592,0.169,0.345,-74.707,43.701,66.956
0.660,0.250,0.338,-57.129,51.270,53.406
0.627,0.429,0.443,-36.133,67.505,60.852
0.658,0.533,0.585,-33.142,64.026,44.495
0.867,0.632,0.683,-32.043,56.335,22.827
1.118,0.922,0.665,-20.142,77.209,15.381
1.391,1.009,0.617,3.662,54.871,0.427
1.382,0.527,0.829,58.228,-28.198,-10.315
1.173,0.177,0.906,45.715,-51.636,15.930
0.970,0.157,0.708,-23.804,-5.737,45.959
0.796,0.153,0.317,-38.513,30.212,46.936
0.750,0.155,0.188,-15.137,24.780,36.255
0.687,0.180,0.227,-0.549,-1.770,20.813
0.685,0.184,0.322,5.005,-13.123,2.441
0.758,0.176,0.419,14.099,-0.122,-4.089
0.828,0.196,0.513,11.047,3.418,-6.165
0.863,0.232,0.541,0.122,-0.366,-8.484
0.889,0.275,0.513,-5.005,1.587,-10.742
0.907,0.300,0.453,-4.578,6.836,-7.690
0.934,0.278,0.413,-5.188,-1.709,-8.972
0.933,0.249,0.415,-4.333,-9.583,-7.751
0.895,0.234,0.449,-2.747,-15.137,-4.883
0.877,0.228,0.447,-4.517,-19.348,-4.517
0.865,0.218,0.462,-5.554,-24.658,-5.493
0.891,0.205,0.484,-12.939,-36.987,-7.324
0.866,0.232,0.490,-18.982,-45.898,-4.028
0.855,0.226,0.508,-12.024,-42.419,-0.488
0.797,0.246,0.538,-6.348,-41.382,2.747
0.759,0.247,0.556,-2.991,-39.063,-2.319
0.735,0.235,0.557,0.610,-35.706,-3.357
0.730,0.229,0.621,8.972,-42.053,-4.333
0.737,0.226,0.671,9.827,-28.625,-2.869
0.743,0.219,0.664,5.615,-5.005,1.221
0.774,0.200,0.657,-0.671,-1.953,1.587
0.767,0.208,0.647,-3.967,-8.362,2.930
0.749,0.219,0.643,-2.991,-1.038,2.625
0.749,0.231,0.626,-3.601,2.869,0.549
0.762,0.221,0.619,-6.775,-5.432,-0.732
0.767,0.219,0.607,-7.996,-5.798,2.014
0.742,0.238,0.609,-6.287,-3.479,1.404
0.740,0.243,0.622,-3.418,-5.310,-1.343
0.733,0.252,0.626,-5.005,-2.930,-1.099
0.732,0.265,0.610,-4.578,0.977,-0.244
0.745,0.262,0.611,-2.808,1.526,-1.892
0.754,0.258,0.603,-2.075,1.709,-2.075
0.761,0.240,0.601,-0.244,2.808,-2.930
0.757,0.239,0.614,-0.488,2.380,-1.709
0.745,0.246,0.611,-0.732,3.418,-1.831
0.750,0.241,0.616,-0.732,3.235,-3.479
0.763,0.236,0.628,0.305,2.197,-3.479
0.769,0.236,0.637,-1.099,2.869,-3.967
0.794,0.225,0.623,-2.808,3.174,-4.028
0.785,0.232,0.624,-3.052,3.174,-1.160
0.779,0.246,0.616,-2.869,6.104,-0.183
0.793,0.248,0.612,-2.380,8.423,0.000
0.833,0.234,0.595,-6.165,4.272,-2.197
0.851,0.215,0.562,-5.127,5.066,-0.366
0.830,0.224,0.556,-2.258,5.798,5.493
0.778,0.233,0.569,-0.305,3.662,8.911
0.757,0.224,0.573,-1.526,-0.732,6.104
0.745,0.224,0.582,-4.150,-5.981,3.357
0.728,0.253,0.593,-4.028,-1.953,3.296

0.764,0.272,0.583,2.014,-0.244,-2.014
0.788,0.257,0.586,1.221,-1.404,-1.038
0.781,0.256,0.572,3.662,0.366,1.648
0.756,0.264,0.590,4.395,0.427,1.526
0.754,0.266,0.596,3.906,-0.305,0.671
0.768,0.260,0.586,4.456,0.244,-0.610
0.772,0.250,0.605,4.150,-0.793,-0.610
0.786,0.250,0.581,3.174,-0.549,0.061
0.780,0.254,0.590,5.615,0.183,1.465
0.763,0.260,0.592,5.981,0.061,2.563
0.751,0.258,0.594,4.822,0.916,2.930
0.752,0.260,0.598,5.005,0.854,1.770
0.749,0.269,0.584,5.981,2.319,3.479
0.776,0.281,0.589,6.653,2.014,2.258
0.858,0.332,0.599,10.559,5.249,3.906
0.931,0.378,0.656,18.127,7.202,8.972
0.992,0.485,0.702,15.198,-12.268,11.475
0.990,0.583,0.700,10.376,-39.429,15.259
0.970,0.660,0.694,19.775,-48.035,26.367
0.804,0.700,0.797,37.964,-52.673,39.856
0.598,0.764,0.894,51.208,-52.734,33.142
0.504,0.794,0.873,48.706,-47.180,-1.709
0.590,0.763,0.878,45.959,-51.025,-17.456
0.540,0.818,0.908,32.898,-55.359,-8.850
0.340,0.861,0.879,41.382,-42.053,-35.156
0.148,0.857,0.897,62.805,-21.423,-87.524
-0.026,0.506,0.786,52.979,-12.146,-138.123
-0.184,0.123,0.564,10.559,-1.770,-137.451
-0.415,-0.499,0.091,31.433,46.814,-197.754
-0.265,-1.506,-0.122,30.945,-18.066,-280.273
0.238,-1.921,0.234,57.739,-68.237,-304.199
1.043,-1.654,0.748,79.773,-2.441,-219.116
1.465,-1.144,0.558,24.109,69.275,-58.594
1.092,-0.864,0.528,16.907,-22.522,27.405
0.105,-0.550,0.865,16.541,-53.406,61.340
-0.181,-0.339,1.025,6.287,-40.894,22.278
0.254,-0.411,0.710,-17.700,-3.601,-24.841
0.552,-0.577,0.809,10.376,-3.113,-28.015
0.470,-0.504,0.952,9.460,3.662,-0.427
0.435,-0.369,0.760,-7.324,17.395,0.916
0.566,-0.398,0.744,1.404,5.188,-10.071
0.538,-0.428,0.865,3.601,-8.423,-3.052
0.400,-0.352,0.890,-2.075,1.221,6.592
0.421,-0.345,0.784,-1.465,24.231,4.395
0.547,-0.413,0.736,4.272,23.926,1.892
0.536,-0.459,0.775,1.770,12.085,7.263
0.490,-0.505,0.854,-2.441,3.662,6.775
0.519,-0.577,0.825,-0.366,14.587,16.541
0.555,-0.664,0.784,4.333,28.259,33.630
0.566,-0.709,0.808,6.714,33.997,56.519
0.578,-0.742,0.846,14.832,37.231,78.857
0.576,-0.850,0.840,3.296,34.485,95.520
0.502,-0.720,0.746,-13.245,28.137,105.713
0.414,-0.612,0.703,-32.227,18.494,93.872
0.451,-0.481,0.592,-40.039,36.499,93.140
0.521,-0.348,0.485,-34.851,72.815,102.661
0.589,-0.354,0.391,-78.674,28.137,74.036
0.659,-0.163,0.347,-71.838,10.132,69.946
0.604,-0.128,0.304,-42.908,47.791,84.961
0.656,-0.083,0.339,-36.194,67.200,83.191
0.623,0.126,0.332,-60.059,61.768,89.783
0.653,0.206,0.202,-69.458,50.476,84.412
0.664,0.313,0.166,-46.936,58.228,85.449
0.621,0.382,0.316,-13.611,87.585,78.552
0.664,0.380,0.397,-22.644,94.971,68.787
0.621,0.548,0.321,-40.588,107.605,67.566
0.581,0.696,0.323,-45.837,103.821,42.786
0.570,0.793,0.328,-43.030,111.084,28.625
0.828,1.083,0.343,-33.203,137.390,14.526
1.256,1.536,0.382,5.676,155.029,7.507
1.452,1.237,0.236,19.897,126.892,2.380
1.439,0.609,-0.053,1.648,53.772,-12.573
1.503,0.102,-0.335,-22.522,-7.446,-31.250
1.284,0.018,-0.139,7.019,-52.246,6.897
0.855,0.167,0.122,17.334,-57.617,24.719
0.642,0.290,0.182,5.127,-41.260,16.663
0.667,0.368,0.154,-3.601,-31.738,-3.540
0.800,0.366,0.198,0.610,-36.682,-18.860
0.885,0.371,0.247,2.136,-33.447,-21.790
0.903,0.382,0.239,0.671,-14.709,-12.634
0.944,0.370,0.201,2.441,4.089,-3.662
0.940,0.366,0.153,-2.197,6.348,-1.160
0.923,0.365,0.124,-2.319,-2.991,-8.179
0.950,0.350,0.160,0.427,-12.451,-13.062
0.990,0.332,0.204,-1.038,-17.761,-9.766
0.986,0.330,0.240,-4.333,-19.104,-3.662
0.950,0.333,0.239,-2.502,-14.465,2.625
0.914,0.321,0.237,1.221,-9.216,4.639
0.902,0.312,0.238,2.258,-10.315,6.165
0.897,0.310,0.239,5.188,-11.719,0.610
0.919,0.300,0.248,1.587,-10.681,0.366
0.916,0.317,0.262,-2.502,-9.949,2.441
0.918,0.339,0.248,-5.798,-8.484,2.197
0.920,0.350,0.245,-4.639,-9.033,2.625
0.907,0.342,0.275,-3.357,-13.428,1.709
0.907,0.334,0.262,-6.958,-14.587,2.075
0.907,0.344,0.242,-3.723,-10.864,5.554
0.889,0.363,0.251,1.404,-5.249,7.568
0.893,0.373,0.239,1.526,-6.836,4.822
0.897,0.380,0.235,5.432,-8.240,6.104
0.862,0.387,0.266,8.789,-6.409,8.484
0.861,0.391,0.261,5.432,-8.118,4.395
0.861,0.389,0.262,7.385,-9.644,2.258
0.856,0.376,0.288,9.644,-11.536,-0.732
0.861,0.375,0.296,10.315,-11.047,-0.916
0.866,0.373,0.291,11.780,-2.625,0.305
0.864,0.355,0.275,10.010,-0.671,-2.075
0.871,0.345,0.296,8.606,-10.620,-8.301
0.888,0.356,0.318,9.460,-9.277,-9.216
0.910,0.346,0.344,9.583,-5.615,-7.080
0.924,0.319,0.331,5.127,-6.775,-6.775
0.923,0.313,0.322,4.883,-10.437,-5.554
0.908,0.312,0.331,6.470,-9.583,-3.967
0.902,0.289,0.333,4.944,-9.644,-3.601
0.893,0.289,0.333,2.869,-14.099,-3.174
0.876,0.304,0.349,4.150,-12.207,-2.258
0.865,0.306,0.370,4.578,-8.179,-1.831
0.884,0.311,0.366,2.502,-8.606,-2.014
0.898,0.304,0.358,2.625,-9.888,-1.648
0.906,0.291,0.360,2.869,-9.888,-1.343
0.898,0.300,0.378,1.221,-15.259,-1.526
0.892,0.308,0.395,3.113,-13.428,-0.061
0.908,0.311,0.402,4.944,-7.568,1.526
0.890,0.303,0.379,2.319,-10.681,2.563
0.858,0.289,0.384,4.150,-16.052,2.869

0.836,0.276,0.517,3.540,-6.409,-5.676
0.839,0.282,0.502,5.249,-5.371,-3.967
0.825,0.277,0.495,7.507,-5.493,-2.563
0.821,0.265,0.509,7.141,-10.681,-5.188
0.807,0.265,0.506,8.301,-12.939,-6.348
0.806,0.244,0.525,12.390,-14.465,-8.728
0.794,0.236,0.552,17.517,-12.939,-6.958
0.804,0.227,0.602,19.775,-10.986,-6.775
0.817,0.217,0.602,15.442,-10.010,-3.845
0.791,0.213,0.582,14.343,-4.883,-1.465
0.803,0.208,0.570,11.169,-8.545,-3.662
0.789,0.212,0.562,13.306,-11.292,-4.089
0.790,0.232,0.574,15.625,-7.446,-3.906
0.810,0.239,0.586,16.541,-6.104,-5.615
0.833,0.297,0.586,18.738,-9.338,-5.188
0.843,0.321,0.603,23.376,-15.930,-8.179
0.872,0.306,0.714,27.405,-35.522,-17.761
0.882,0.307,0.772,30.884,-41.138,-15.015
0.808,0.358,0.769,40.466,-29.297,3.052
0.728,0.442,0.780,48.828,-18.860,5.249
0.733,0.484,0.775,39.612,-42.236,-22.034
0.821,0.445,0.823,38.330,-69.458,-37.048
0.750,0.563,0.878,38.208,-65.308,-21.240
0.672,0.644,0.820,44.983,-57.251,-22.827
0.575,0.524,0.789,71.045,-54.687,-46.814
0.571,0.354,0.937,59.143,-69.458,-65.186
0.426,0.214,0.848,25.452,-63.721,-67.749
0.309,0.058,0.567,41.016,-24.048,-83.130
0.276,-0.210,0.562,37.720,-54.443,-136.902
0.275,-0.537,0.589,16.296,-80.505,-156.372
0.186,-0.795,0.580,28.381,-40.344,-135.437
0.110,-0.888,0.536,15.686,-27.954,-138.123
0.132,-1.002,0.510,9.155,-49.561,-168.335
0.167,-0.986,0.580,29.175,-13.245,-148.071
0.271,-0.958,0.603,36.011,25.085,-92.346
0.309,-0.800,0.543,36.865,24.292,-62.683
0.409,-0.851,0.757,46.021,-33.325,-50.049
0.153,-0.761,1.062,22.827,-15.198,-7.141
0.148,-0.614,0.851,-10.803,-19.470,-11.475
0.198,-0.615,0.793,5.981,-40.955,-12.512
0.078,-0.600,1.001,13.672,-19.714,6.287
-0.008,-0.488,0.943,0.366,8.972,2.930
0.101,-0.493,0.822,-2.197,3.174,-10.925
0.260,-0.571,0.818,3.662,-5.310,-13.184
0.266,-0.613,0.924,-1.465,-13.123,-0.427
0.084,-0.512,0.854,-11.169,0.122,14.709
0.097,-0.489,0.765,-5.066,8.911,7.812
0.206,-0.619,0.859,4.578,4.395,-2.625
0.277,-0.691,0.918,-2.869,4.761,7.751
0.238,-0.725,0.925,-18.860,-1.526,21.423
0.216,-0.692,0.907,-23.254,-0.610,39.490
0.218,-0.695,0.816,-18.555,13.916,56.458
0.243,-0.743,0.824,-22.461,5.493,65.552
0.232,-0.674,0.769,-38.818,-5.127,72.510
0.221,-0.660,0.652,-46.570,-18.921,60.303
0.241,-0.761,0.732,-41.809,-36.987,54.993
0.281,-0.581,0.769,-55.908,-25.330,80.139
0.155,-0.583,0.662,-62.439,-2.319,79.468
0.169,-0.626,0.705,-64.087,-19.165,47.119
0.277,-0.391,0.787,-62.195,12.939,59.326
0.283,-0.261,0.683,-64.331,26.489,72.754
0.143,-0.189,0.723,-52.368,32.043,63.904
0.360,0.096,0.721,-66.711,45.532,50.476
0.343,0.126,0.634,-75.806,20.386,47.363
0.237,0.106,0.735,-45.593,34.363,35.034
0.403,0.267,0.840,-42.847,56.641,42.236
0.339,0.335,0.760,-53.833,70.557,56.396
0.269,0.400,0.728,-37.231,66.162,24.841
0.391,0.360,0.865,-33.020,55.847,3.174
0.473,0.333,0.878,-36.194,70.374,7.263
0.617,0.390,0.776,-28.198,106.262,10.376
0.728,0.419,0.774,-19.226,89.783,1.282
0.770,0.447,0.820,-29.358,51.819,-9.399
0.821,0.540,0.828,-16.296,51.453,-0.916
0.822,0.578,0.870,9.766,54.199,12.939
0.817,0.557,0.988,35.461,33.447,7.324
0.815,0.306,1.011,23.071,-0.183,-11.841
0.798,0.122,0.800,-14.038,-14.038,-13.733
0.809,0.065,0.636,-13.733,-8.728,-8.179
0.732,0.046,0.650,-0.122,-9.094,-0.244
0.621,0.090,0.670,3.052,2.380,6.592
0.571,0.125,0.672,6.165,12.329,6.592
0.607,0.127,0.691,6.897,10.925,-3.540
0.688,0.097,0.708,3.235,0.916,-14.343
0.744,0.090,0.725,0.671,-0.732,-13.245
0.760,0.118,0.715,1.648,5.249,-8.118
0.764,0.123,0.720,3.418,7.812,-8.240
0.784,0.105,0.730,0.732,-1.221,-6.958
0.764,0.108,0.725,1.099,0.061,-3.418
0.744,0.105,0.730,-1.770,-4.883,-2.258
0.699,0.120,0.718,-0.977,-4.028,1.221
0.672,0.139,0.713,0.488,0.488,0.366
0.672,0.140,0.706,1.343,0.732,-1.465
0.690,0.129,0.706,-1.282,-1.404,-3.235
0.707,0.112,0.700,-1.709,-0.244,-4.089
0.726,0.094,0.694,-0.427,-5.554,-6.104
0.731,0.073,0.711,-0.977,-10.010,-6.531
0.719,0.062,0.711,-0.244,-7.935,-3.784
0.714,0.067,0.714,2.502,-2.014,0.610
0.682,0.091,0.725,2.686,0.183,2.686
0.679,0.099,0.739,1.221,-1.587,-0.366
0.694,0.087,0.738,-0.916,-0.488,-2.136
0.710,0.075,0.731,-2.686,-0.183,-2.258
0.715,0.074,0.716,-3.967,-1.709,-0.366
0.698,0.085,0.722,-2.441,-0.305,1.648
0.690,0.100,0.728,-3.357,1.099,2.258
0.682,0.113,0.722,-4.700,0.610,1.160
0.703,0.115,0.725,-5.127,-1.648,-2.014
0.704,0.124,0.725,-3.723,-1.282,-0.671
0.722,0.116,0.736,-2.563,-1.892,-0.610
0.729,0.102,0.741,-4.456,-4.150,0.610
0.718,0.106,0.740,-4.517,-1.160,2.991
0.692,0.122,0.710,-4.150,0.977,5.188
0.679,0.129,0.705,-3.052,-0.366,4.211
0.670,0.137,0.702,-2.441,-0.854,1.404
0.678,0.132,0.708,-1.099,0.122,1.160
0.689,0.133,0.710,-0.488,-0.488,0.610
0.699,0.135,0.719,-0.793,-0.122,1.038
0.707,0.131,0.720,0.671,0.000,1.526
0.691,0.133,0.730,1.404,0.366,1.526
0.694,0.124,0.723,-0.061,-0.916,1.038
0.696,0.122,0.705,1.831,-0.305,1.404
0.695,0.125,0.708,2.625,0.122,0.793
0.705,0.121,0.710,2.991,0.000,0.366
0.701,0.123,0.722,3.357,-0.244,1.892

0.708,0.133,0.731,-0.061,-1.770,-1.038
0.694,0.131,0.741,2.563,-0.061,0.183
0.684,0.119,0.744,0.977,-3.967,-2.075
0.664,0.134,0.723,1.343,-4.395,-0.061
0.664,0.163,0.708,3.967,-0.549,-1.465
0.665,0.174,0.706,6.104,-3.784,-3.906
0.682,0.170,0.717,8.728,-4.944,-6.470
0.678,0.209,0.766,11.780,-3.357,-5.920
0.667,0.236,0.890,17.700,-5.127,-9.216
0.713,0.222,0.959,13.123,-18.738,-16.602
0.746,0.257,0.899,6.348,-16.174,-4.822
0.741,0.344,0.821,19.531,-12.634,-1.160
0.755,0.373,0.882,28.198,-25.452,-3.784
0.791,0.467,0.901,36.743,-32.532,-2.747
0.816,0.600,0.984,58.777,-35.217,3.235
0.753,0.677,1.028,64.514,-36.377,5.798
0.537,0.654,0.849,56.946,-31.128,3.601
0.372,0.519,0.734,63.171,-36.865,-32.104
0.344,0.246,0.723,70.129,-28.442,-64.636
0.452,-0.078,0.749,53.650,-11.108,-70.923
0.391,-0.274,0.723,30.396,-4.211,-81.177
0.289,-0.416,0.698,19.165,-7.080,-99.487
0.354,-0.584,0.590,12.390,7.935,-116.028
0.341,-0.688,0.481,3.479,9.766,-112.488
0.297,-0.780,0.422,7.507,-8.118,-127.258
0.367,-0.866,0.489,24.902,-16.663,-143.738
0.430,-0.843,0.562,29.907,9.033,-111.572
0.423,-0.840,0.584,15.808,5.188,-82.153
0.599,-0.795,0.706,24.658,5.676,-72.205
0.350,-0.662,0.801,23.682,9.399,-14.954
0.270,-0.567,0.813,9.705,1.709,-15.564
0.280,-0.511,0.771,8.362,0.549,-14.343
0.230,-0.467,0.782,2.258,1.953,-14.709
0.430,-0.575,0.767,-6.226,-8.667,-35.767
0.325,-0.561,0.860,6.836,-12.695,-15.625
0.180,-0.493,0.905,13.672,-0.793,-0.122
0.319,-0.511,0.759,8.728,-2.258,-15.381
0.423,-0.566,0.779,18.494,-15.137,-14.832
0.351,-0.584,0.896,9.155,-27.222,-2.808
0.239,-0.521,0.887,-2.869,-9.583,7.141
0.265,-0.510,0.804,-4.578,4.700,2.747
0.301,-0.558,0.840,-1.953,-3.784,-2.808
0.302,-0.584,0.872,-3.113,-4.517,0.183
0.308,-0.617,0.879,-8.057,-6.775,4.944
0.307,-0.638,0.865,-11.719,-5.249,14.832
0.302,-0.648,0.809,-13.428,1.953,29.724
0.253,-0.662,0.803,-6.836,12.756,47.913
0.180,-0.493,0.806,-7.202,39.063,62.927
0.190,-0.433,0.674,-13.062,42.358,48.889
0.325,-0.428,0.605,-17.456,27.405,36.682
0.354,-0.419,0.616,-3.357,17.517,31.677
0.415,-0.596,0.700,-4.944,-3.662,22.339
0.460,-0.533,0.760,-0.122,20.142,46.204
0.437,-0.545,0.691,-4.944,30.396,46.448
0.471,-0.654,0.638,-29.114,1.160,34.790
0.521,-0.520,0.706,-27.344,8.850,46.265
0.470,-0.480,0.664,-23.865,32.593,59.509
0.437,-0.532,0.659,-32.715,20.630,42.664
0.540,-0.281,0.698,-32.532,29.968,36.133
0.510,-0.289,0.596,-37.231,46.204,34.973
0.536,-0.271,0.586,-38.574,46.265,20.447
0.744,-0.066,0.538,-22.766,67.688,23.315
0.706,-0.103,0.498,-13.000,68.420,36.011
0.768,-0.120,0.605,-22.644,33.447,8.972
0.843,-0.090,0.651,-18.311,41.443,11.353
0.819,-0.077,0.581,-18.188,69.336,27.527
0.801,0.062,0.552,-4.395,93.384,41.138
0.796,0.109,0.572,-3.296,90.637,36.072
0.838,0.127,0.619,-8.728,77.271,21.240
0.912,0.272,0.664,-4.456,86.792,24.841
1.085,0.452,0.632,1.099,93.140,19.775
1.321,0.645,0.726,21.729,41.199,-7.690
1.430,0.393,0.857,20.691,-31.616,-22.461
1.245,-0.094,0.684,-18.677,-43.030,-9.399
1.109,-0.264,0.393,-29.297,-33.630,9.705
0.937,-0.245,0.351,-2.197,-25.330,23.865
0.789,-0.189,0.461,8.179,-16.357,27.588
0.684,-0.128,0.478,0.854,-8.789,25.024
0.679,-0.078,0.499,3.784,-4.883,13.855
0.734,-0.063,0.542,3.357,-10.132,1.892
0.804,-0.073,0.559,1.587,-13.000,-6.897
0.857,-0.081,0.590,-3.784,-14.160,-5.798
0.877,-0.076,0.560,-4.700,-7.874,-0.549
0.894,-0.070,0.522,-2.014,-1.404,4.944
0.884,-0.056,0.509,-0.793,-4.517,6.409
0.839,-0.046,0.531,0.610,-9.949,6.592
0.803,-0.046,0.571,0.793,-11.902,5.493
0.809,-0.071,0.586,-0.305,-13.367,1.953
0.817,-0.079,0.593,-1.831,-11.108,1.038
0.816,-0.063,0.601,-4.028,-10.925,-0.061
0.822,-0.054,0.601,-4.517,-10.315,0.854
0.820,-0.033,0.604,-2.991,-7.996,3.845
0.799,0.001,0.592,0.000,-0.183,10.437
0.807,0.006,0.575,-1.770,-1.221,4.333
0.808,-0.001,0.575,-3.784,-7.141,-2.380
0.821,-0.026,0.566,-4.883,-10.681,-4.395
0.825,-0.041,0.572,-4.883,-14.465,-3.174
0.803,-0.034,0.573,1.343,-6.897,1.465
0.785,-0.019,0.593,4.272,-1.709,0.854
0.804,-0.022,0.606,2.502,-7.446,-2.563
0.803,-0.038,0.607,4.333,-2.991,-0.305
0.812,-0.071,0.615,3.784,-2.258,-2.197
0.830,-0.103,0.630,-2.625,-11.414,-4.639
0.821,-0.084,0.625,-3.723,-4.822,2.441
0.790,-0.046,0.600,-0.061,6.592,8.728
0.770,-0.010,0.588,0.427,0.671,5.432
0.773,-0.005,0.597,2.930,-2.136,-0.610
0.793,-0.024,0.618,3.174,-3.540,-2.808
0.798,-0.035,0.631,3.052,-2.686,-0.366
0.802,-0.044,0.629,1.892,-0.488,-0.732
0.818,-0.064,0.633,-1.099,-7.019,-3.479
0.815,-0.068,0.637,-1.892,-7.080,-1.343
0.790,-0.061,0.646,-0.549,-0.916,3.174
0.771,-0.053,0.639,-2.808,-0.671,2.136
0.779,-0.044,0.610,-4.395,-1.648,0.000
0.793,-0.035,0.604,-2.930,-0.366,-1.038
0.804,-0.029,0.607,-2.808,-1.648,-0.122
0.816,-0.032,0.613,-2.930,-2.502,-0.488
0.804,-0.029,0.619,-1.648,-0.671,2.136
0.798,-0.037,0.621,-0.977,-1.343,2.136
0.784,-0.037,0.640,-0.977,-2.930,1.709
0.765,-0.026,0.649,-1.282,-0.977,1.831
0.761,-0.017,0.641,-1.831,0.366,0.488
0.779,-0.025,0.623,-2.075,-0.183,-2.075
0.805,-0.036,0.609,-2.319,-1.465,-2.930

0.781,-0.024,0.645,-0.305,0.610,1.404
0.790,-0.030,0.639,-0.183,-0.549,0.793
0.788,-0.027,0.641,-0.305,-0.244,2.075
0.777,-0.021,0.638,-0.671,0.427,1.282
0.776,-0.021,0.633,-0.671,-2.808,0.122
0.773,-0.021,0.637,0.610,0.305,0.916
0.769,-0.018,0.642,1.526,0.488,0.977
0.777,-0.025,0.646,0.854,0.244,-0.549
0.794,-0.028,0.632,0.305,0.244,0.427
0.787,-0.030,0.642,2.136,0.305,1.526
0.785,-0.026,0.645,1.343,0.427,2.075
0.778,-0.020,0.640,1.892,1.099,1.587
0.788,-0.021,0.636,1.587,0.122,0.549
0.779,-0.019,0.640,1.526,-0.122,1.404
0.756,-0.009,0.643,2.319,1.343,1.709
0.760,-0.016,0.646,3.113,1.282,-0.549
0.731,-0.047,0.681,3.052,0.916,-1.953
0.764,-0.067,0.681,-0.122,3.540,-5.615
0.800,-0.029,0.645,-1.526,6.287,-3.235
0.813,0.019,0.615,0.671,9.155,-1.587
0.803,0.025,0.598,2.808,3.967,-3.052
0.787,0.007,0.604,2.686,-1.953,-4.883
0.774,0.005,0.592,5.127,1.465,-3.906
0.792,-0.022,0.589,8.850,-2.563,-7.690
0.834,-0.055,0.616,9.460,-7.324,-12.634
0.863,-0.035,0.651,13.062,-6.714,-9.949
0.892,0.012,0.728,17.761,-4.944,-5.920
0.921,0.048,0.756,16.541,-12.634,-3.784
0.951,0.090,0.772,20.325,-28.870,-2.502
0.944,0.127,0.802,29.358,-31.860,8.118
0.893,0.186,0.770,41.504,-28.137,18.555
0.835,0.248,0.762,42.236,-51.514,3.845
0.823,0.235,0.756,41.016,-80.139,-13.306
0.850,0.157,0.813,47.974,-72.815,6.104
0.766,0.160,0.814,51.636,-42.725,21.484
0.665,0.159,0.782,44.250,-46.936,4.089
0.642,0.050,0.780,39.368,-66.772,-24.719
0.649,-0.086,0.828,28.564,-57.861,-20.630
0.528,-0.123,0.754,28.625,-41.687,-17.090
0.443,-0.180,0.728,37.292,-33.142,-38.757
0.479,-0.303,0.738,28.564,-30.457,-52.551
0.394,-0.348,0.661,10.132,-16.541,-43.884
0.342,-0.432,0.633,12.634,-7.019,-53.772
0.345,-0.491,0.596,9.521,-7.629,-68.542
0.349,-0.570,0.562,-6.104,-26.733,-82.458
0.365,-0.654,0.577,-0.549,-30.029,-81.604
0.340,-0.661,0.619,11.597,-5.676,-69.641
0.300,-0.622,0.612,10.315,10.376,-55.054
0.220,-0.560,0.627,10.864,4.700,-49.561
0.231,-0.589,0.703,12.390,-9.705,-60.364
0.314,-0.709,0.800,9.033,-27.710,-67.017
0.301,-0.694,0.884,11.536,-22.949,-48.706
0.266,-0.643,0.859,9.827,-5.798,-25.391
0.236,-0.571,0.876,9.216,2.441,-16.235
0.233,-0.526,0.811,6.104,9.949,-7.141
0.257,-0.541,0.808,7.263,-5.554,-15.808
0.291,-0.572,0.864,4.700,-10.315,-12.085
0.263,-0.548,0.889,1.038,-5.005,-6.958
0.244,-0.518,0.853,1.221,5.249,-3.174
0.257,-0.523,0.827,0.061,0.732,-8.118
0.287,-0.543,0.833,0.183,-1.099,-6.104
0.278,-0.554,0.834,-1.099,-0.793,-3.845
0.286,-0.572,0.838,-1.099,1.831,-0.366
0.298,-0.598,0.838,-1.221,2.686,2.502
0.322,-0.634,0.852,-4.089,-0.610,8.606
0.301,-0.660,0.890,-7.202,-3.418,13.245
0.285,-0.656,0.859,-16.113,-5.859,20.691
0.226,-0.562,0.824,-14.038,4.822,34.912
0.118,-0.531,0.840,-13.855,5.249,23.926
0.102,-0.443,0.800,-35.278,-6.531,-20.325
0.231,-0.486,0.763,-30.640,-18.372,-25.452
0.223,-0.583,0.833,-23.865,-16.235,11.658
0.221,-0.579,0.827,-15.198,12.573,34.546
0.163,-0.506,0.817,-3.723,33.020,48.462
0.203,-0.603,0.757,-12.512,23.621,39.917
0.347,-0.594,0.720,-12.756,26.123,42.542
0.394,-0.594,0.646,-11.292,48.767,57.434
0.401,-0.466,0.636,-24.475,34.729,60.669
0.435,-0.439,0.613,-23.376,33.142,52.429
0.482,-0.432,0.628,-24.963,28.381,46.936
0.419,-0.294,0.698,-33.264,21.851,48.950
0.388,-0.201,0.744,-34.119,29.602,37.598
0.432,-0.162,0.725,-38.208,39.368,23.926
0.567,-0.156,0.684,-33.081,61.462,21.240
0.667,-0.035,0.622,-34.912,68.542,32.471
0.651,-0.040,0.588,-30.579,54.077,17.212
0.760,0.004,0.667,-16.907,61.890,13.672
0.777,0.008,0.705,-16.724,68.237,22.278
0.749,-0.016,0.749,-24.109,69.031,20.569
0.762,0.055,0.729,-28.137,81.055,20.691
0.777,0.092,0.664,-24.719,87.036,18.738
0.776,0.087,0.686,-21.423,87.769,10.559
0.834,0.130,0.676,-22.522,91.736,16.541
0.966,0.269,0.604,-12.207,109.192,22.461
1.117,0.404,0.549,1.526,84.656,12.512
1.089,0.270,0.662,23.987,18.677,-15.686
1.134,0.006,0.811,27.283,-32.166,-40.710
1.152,-0.164,0.730,5.066,-18.311,-20.203
1.046,-0.149,0.511,-8.911,25.635,21.851
0.961,-0.073,0.359,-9.766,41.870,36.560
0.865,0.012,0.302,-8.179,19.287,35.034
0.775,0.038,0.321,-0.427,1.648,25.696
0.781,-0.034,0.399,7.751,-18.677,6.226
0.795,-0.071,0.502,6.653,-31.372,-3.174
0.843,-0.104,0.533,3.052,-25.024,-7.507
0.866,-0.098,0.535,10.315,-0.610,5.188
0.884,-0.071,0.525,13.184,16.479,14.709
0.931,-0.053,0.504,14.954,16.357,15.381
0.956,-0.045,0.508,22.339,21.790,21.912
0.946,-0.016,0.521,19.775,25.757,28.137
0.934,-0.012,0.500,8.667,11.169,22.583
0.928,-0.022,0.482,4.028,3.479,21.667
0.897,-0.011,0.452,1.526,2.441,20.203
0.861,-0.003,0.451,-1.648,-3.723,14.465
0.866,0.001,0.473,-5.981,-10.559,10.193
0.881,0.011,0.461,-5.859,-6.958,10.681
0.872,0.042,0.477,-3.784,-4.028,10.925
0.864,0.054,0.490,-6.897,-11.047,5.066
0.886,0.050,0.498,-9.888,-13.672,6.348
0.867,0.054,0.482,-8.667,-8.972,8.057
0.884,0.032,0.477,-5.554,-6.226,6.042
0.889,0.027,0.492,-4.883,-6.104,8.911
0.886,0.046,0.486,-5.737,-3.052,11.658
0.868,0.065,0.501,-7.507,-6.897,9.521
0.862,0.068,0.509,-9.033,-10.010,6.897

0.798,0.104,0.535,-1.770,0.732,0.793
0.829,0.096,0.514,-0.122,-1.404,-2.197
0.856,0.099,0.509,1.343,-1.282,-3.296
0.868,0.095,0.498,0.305,-1.587,-5.005
0.869,0.083,0.518,0.854,-5.798,-6.348
0.856,0.070,0.535,-0.122,-9.277,-6.897
0.851,0.063,0.539,2.747,-7.202,-5.249
0.841,0.059,0.534,5.188,-5.615,-4.211
0.834,0.057,0.541,7.263,-6.714,-4.211
0.832,0.071,0.554,6.958,-3.601,-1.770
0.824,0.073,0.567,9.033,-0.916,-3.723
0.852,0.039,0.591,1.648,-10.437,-8.240
0.839,0.044,0.576,-1.038,-9.644,-4.883
0.825,0.042,0.563,2.258,-2.930,-5.005
0.851,0.033,0.558,1.038,-8.301,-7.141
0.845,0.025,0.565,1.221,-10.864,-6.531
0.848,0.021,0.563,2.808,-6.104,-2.502
0.839,0.027,0.573,5.859,-2.014,0.183
0.830,0.027,0.573,4.639,-1.648,1.404
0.826,0.019,0.570,3.601,-2.441,1.038
0.824,0.004,0.557,4.089,-6.226,-0.854
0.828,0.005,0.581,8.301,-7.568,-0.122
0.858,-0.007,0.611,2.441,-7.751,10.864
0.804,0.047,0.584,-3.479,-3.174,22.705
0.793,0.058,0.562,-2.136,0.549,12.451
0.769,0.066,0.556,4.272,1.160,0.183
0.795,0.067,0.587,5.859,-0.366,-8.118
0.859,0.090,0.633,5.005,-1.709,-10.986
0.935,0.159,0.663,3.967,-6.531,-7.874
1.006,0.230,0.688,6.287,-10.376,-5.371
1.032,0.354,0.635,7.751,-22.217,1.587
0.988,0.448,0.653,23.193,-30.884,9.338
0.929,0.471,0.713,35.522,-44.556,3.357
0.929,0.399,0.821,25.085,-84.717,-10.437
0.934,0.321,0.825,22.583,-92.285,6.836
0.818,0.276,0.800,56.335,-60.364,24.353
0.726,0.337,0.852,55.542,-67.017,2.319
0.661,0.278,0.833,20.569,-99.670,-25.574
0.623,0.225,0.765,31.982,-70.313,-20.142
0.479,0.161,0.683,60.730,-15.381,-24.597
0.335,0.057,0.560,35.706,-58.167,-90.271
0.453,-0.239,0.594,35.828,-77.271,-98.999
0.364,-0.407,0.571,68.359,-18.066,-73.303
0.198,-0.525,0.589,63.171,-21.729,-90.881
0.219,-0.677,0.627,36.804,-57.495,-131.653
0.252,-0.769,0.626,34.058,-50.415,-130.737
0.245,-0.777,0.577,36.682,-28.748,-118.347
0.207,-0.702,0.614,26.367,-26.001,-103.943
0.077,-0.597,0.654,23.682,-29.114,-91.492
0.051,-0.644,0.671,34.180,-25.757,-92.346
0.131,-0.762,0.804,49.988,-23.193,-88.379
0.208,-0.793,0.885,43.274,-8.850,-58.350
0.195,-0.782,0.851,29.663,9.094,-26.917
0.069,-0.654,0.791,28.931,17.212,-8.362
0.152,-0.696,0.815,19.104,-9.460,-17.395
0.138,-0.701,0.833,6.897,-24.414,-8.789
0.047,-0.656,0.852,10.071,-9.216,0.244
0.069,-0.600,0.798,7.385,5.371,-0.977
0.156,-0.643,0.836,5.005,-8.789,-8.850
0.171,-0.665,0.889,0.671,-13.306,-4.761
0.013,-0.570,0.846,-4.395,2.808,12.207
0.021,-0.525,0.732,-1.404,18.311,8.545
0.084,-0.588,0.754,3.357,7.263,-7.019
0.183,-0.736,0.801,1.526,-0.427,-3.357
0.091,-0.677,0.834,-8.789,9.888,36.682
-0.220,-0.466,0.833,21.240,72.937,75.134
-0.218,-0.484,0.850,21.729,78.430,38.513
0.054,-0.593,0.743,-20.874,32.410,-8.545
0.333,-0.773,0.620,-20.874,13.367,-6.226
0.417,-0.877,0.642,1.404,24.597,39.185
0.375,-0.856,0.684,-1.465,38.086,68.787
0.381,-0.751,0.623,-20.264,34.485,74.158
0.395,-0.683,0.540,-32.349,24.536,71.716
0.433,-0.597,0.562,-36.804,14.648,70.740
0.427,-0.603,0.560,-37.537,15.503,70.251
0.505,-0.554,0.623,-40.833,12.451,61.035
0.510,-0.427,0.652,-42.847,17.273,65.796
0.533,-0.485,0.632,-51.392,20.142,53.040
0.609,-0.347,0.677,-45.349,30.334,57.129
0.592,-0.260,0.618,-44.312,48.767,67.566
0.581,-0.230,0.641,-49.072,35.889,48.706
0.672,-0.070,0.666,-43.274,42.114,46.204
0.628,-0.116,0.627,-41.687,45.959,45.776
0.582,-0.066,0.692,-35.400,49.133,38.452
0.611,-0.023,0.668,-41.077,57.434,29.114
0.639,-0.021,0.615,-43.884,63.721,25.024
0.711,0.062,0.564,-27.893,85.571,27.893
0.765,0.126,0.553,-9.155,103.394,33.386
0.931,0.170,0.552,-8.667,99.304,21.973
1.007,0.296,0.555,-5.310,90.210,26.184
1.098,0.562,0.574,12.939,85.205,24.841
1.359,0.713,0.722,44.617,13.367,-18.250
1.358,0.155,0.933,22.034,-87.952,-30.640
1.003,-0.187,0.905,-12.756,-64.270,15.869
0.785,-0.211,0.626,-10.254,5.371,37.292
0.738,-0.191,0.536,-5.798,-5.493,22.034
0.714,-0.165,0.557,-14.893,-26.917,6.531
0.672,-0.094,0.550,-17.517,-13.733,6.836
0.693,-0.035,0.561,-2.747,9.033,5.981
0.755,-0.008,0.589,2.380,0.000,-0.916
0.810,0.004,0.624,-2.991,-0.122,-1.038
0.819,0.012,0.615,-6.409,3.845,-1.099
0.844,0.002,0.581,-8.118,5.310,-2.136
0.858,-0.013,0.520,-7.507,5.432,0.488
0.882,-0.035,0.532,-3.479,-2.747,-4.944
0.874,-0.045,0.580,-1.282,-8.911,-1.953
0.852,-0.033,0.625,0.732,-2.808,5.188
0.819,-0.012,0.620,-2.686,-2.136,7.568
0.806,-0.002,0.615,-4.272,-6.653,3.296
0.818,-0.020,0.605,-4.944,-6.226,2.991
0.798,-0.020,0.612,-4.395,-6.348,5.188
0.802,-0.013,0.619,-4.883,-2.808,6.165
0.808,0.023,0.599,-7.202,-0.977,6.531
0.800,0.050,0.578,-4.700,0.854,8.728
0.792,0.044,0.583,-1.648,0.183,6.470
0.800,0.037,0.582,-3.967,-5.615,2.319
0.803,0.047,0.571,-1.099,-1.038,4.639
0.799,0.046,0.564,1.282,1.221,4.578
0.801,0.036,0.587,1.587,-5.371,0.610
0.810,0.026,0.618,2.625,-4.944,-0.793
0.796,0.026,0.615,2.686,-0.916,2.747
0.797,0.024,0.609,0.671,-2.136,0.183
0.801,0.023,0.593,0.610,-4.883,-1.526
0.800,0.017,0.603,2.808,-2.991,-0.183
0.785,0.028,0.610,2.625,-1.648,0.610

0.778,-0.011,0.652,-0.671,-2.502,-2.747
0.784,-0.013,0.649,0.488,-0.610,-1.404
0.792,-0.014,0.646,0.305,-1.038,-0.732
0.782,-0.007,0.642,0.366,-1.465,0.122
0.767,0.000,0.641,1.282,-0.122,0.488
0.758,0.001,0.639,2.380,-0.183,0.122
0.757,0.002,0.640,3.174,-0.122,-0.732
0.765,-0.005,0.653,3.174,0.061,-1.831
0.781,-0.008,0.639,2.563,0.488,-1.404
0.777,-0.005,0.637,4.150,1.099,-1.160
0.761,0.002,0.643,5.066,1.160,-1.892
0.761,0.018,0.645,6.531,1.648,-3.235
0.797,0.025,0.657,8.118,-0.061,-5.371
0.804,0.040,0.668,7.507,-3.235,-5.249
0.829,0.086,0.675,9.521,-6.348,-6.104
0.866,0.129,0.655,16.968,-6.470,-2.563
0.911,0.097,0.740,23.071,-19.653,-5.432
0.912,0.087,0.747,16.846,-31.128,-0.671
0.885,0.085,0.753,19.287,-30.945,10.803
0.820,0.110,0.751,26.245,-29.358,18.250
0.768,0.154,0.781,27.283,-34.485,12.024
0.777,0.155,0.760,18.188,-48.889,0.183
0.803,0.102,0.752,23.376,-46.021,6.531
0.746,0.128,0.785,33.508,-35.156,14.954
0.664,0.148,0.797,32.654,-44.067,-3.601
0.642,0.091,0.795,36.499,-55.786,-26.184
0.656,0.019,0.849,39.917,-49.988,-19.409
0.528,0.018,0.816,39.551,-30.884,-18.738
0.443,-0.055,0.733,43.518,-40.894,-57.190
0.559,-0.249,0.791,40.710,-52.246,-76.599
0.509,-0.277,0.748,32.349,-40.527,-56.396
0.401,-0.302,0.714,42.786,-18.677,-58.960
0.400,-0.377,0.717,26.978,-36.987,-86.792
0.387,-0.469,0.711,26.855,-29.724,-75.684
0.310,-0.502,0.693,36.560,-0.427,-66.528
0.254,-0.583,0.682,17.822,-18.433,-86.914
0.270,-0.646,0.661,12.878,-26.306,-99.060
0.302,-0.769,0.686,21.240,-11.108,-90.088
0.236,-0.820,0.806,16.663,-8.118,-75.500
0.271,-0.745,0.720,2.991,15.991,-63.599
0.268,-0.642,0.650,-2.075,11.536,-49.438
0.297,-0.661,0.646,5.310,-2.502,-48.767
0.350,-0.722,0.815,10.742,-17.151,-40.100
0.295,-0.651,0.832,5.676,-1.587,-6.531
0.188,-0.534,0.777,-1.404,-0.854,5.981
0.113,-0.475,0.777,-8.118,-18.372,0.061
0.191,-0.513,0.774,-1.831,-17.273,-8.301
0.208,-0.554,0.859,3.662,-14.343,-5.676
0.175,-0.519,0.838,-1.709,-1.404,4.333
0.197,-0.499,0.757,0.061,-6.531,-3.723
0.223,-0.530,0.817,3.662,-11.475,-5.066
0.222,-0.548,0.853,0.000,-6.042,0.671
0.209,-0.540,0.830,0.244,-5.493,1.099
0.192,-0.538,0.864,-1.343,-6.165,-1.343
0.159,-0.510,0.844,-0.732,-1.465,-0.366
0.180,-0.534,0.862,2.075,-1.343,-5.493
0.207,-0.571,0.887,1.221,4.333,-2.502
0.222,-0.570,0.863,-4.456,4.089,1.465
0.220,-0.565,0.843,-4.517,3.418,2.686
0.240,-0.578,0.849,-3.357,2.625,4.883
0.243,-0.616,0.890,-3.723,8.728,13.977
0.218,-0.573,0.848,-10.071,17.090,23.926
0.216,-0.550,0.835,-9.888,12.512,23.804
0.177,-0.573,0.936,-3.479,18.494,31.738
0.182,-0.558,0.856,-5.798,40.222,38.818
0.328,-0.661,0.768,-16.296,29.785,25.391
0.363,-0.623,0.692,-24.414,18.799,40.527
0.242,-0.539,0.616,-19.958,22.522,60.364
0.176,-0.484,0.649,-10.376,12.634,48.828
0.256,-0.588,0.721,-13.367,-3.296,34.424
0.302,-0.527,0.740,-36.438,0.488,51.086
0.271,-0.449,0.618,-40.649,16.113,60.364
0.291,-0.467,0.655,-36.194,2.808,46.082
0.380,-0.380,0.694,-31.738,11.719,40.466
0.396,-0.389,0.664,-29.663,19.287,47.302
0.396,-0.356,0.708,-25.513,24.353,44.434
0.465,-0.216,0.746,-24.658,28.687,34.058
0.471,-0.244,0.738,-28.259,26.245,20.447
0.487,-0.219,0.754,-21.606,41.870,15.259
0.615,-0.050,0.680,-24.780,48.645,18.677
0.576,-0.108,0.631,-18.982,24.231,-2.014
0.591,-0.137,0.808,-1.587,27.283,-2.136
0.622,-0.120,0.820,-3.723,59.692,2.380
0.695,-0.163,0.731,-10.315,60.730,-4.150
0.763,-0.158,0.751,-15.503,61.462,-5.981
0.752,-0.094,0.752,-14.038,72.327,6.348
0.769,-0.057,0.724,-12.329,89.905,6.104
0.840,-0.001,0.734,-20.447,80.811,7.263
0.878,0.123,0.735,-22.034,84.167,12.329
1.092,0.420,0.781,-9.521,85.815,8.301
1.383,0.546,1.004,15.137,29.297,-13.367
1.258,0.070,0.922,-7.080,-31.860,-6.165
1.023,-0.274,0.664,-22.705,-34.302,20.142
0.862,-0.324,0.555,-9.460,-12.451,35.095
0.741,-0.261,0.568,-2.625,-12.878,32.288
0.608,-0.177,0.594,-1.526,-2.319,34.302
0.559,-0.087,0.568,-3.052,11.353,26.733
0.620,-0.049,0.583,-5.066,0.488,8.240
0.717,-0.053,0.625,-3.052,-12.146,-4.395
0.766,-0.052,0.661,-1.343,-10.803,-4.517
0.779,-0.068,0.696,-1.221,-5.493,-1.526
0.803,-0.079,0.667,-7.629,-5.249,-0.305
0.802,-0.070,0.619,-7.202,-1.221,3.418
0.794,-0.070,0.615,-1.953,-0.244,4.761
0.780,-0.063,0.634,-1.343,-4.883,5.615
0.744,-0.048,0.653,1.587,-1.343,6.042
0.744,-0.059,0.657,-0.366,-2.808,0.916
0.756,-0.062,0.655,-1.343,-6.653,-0.183
0.753,-0.063,0.671,-2.808,-6.287,-0.610
0.752,-0.048,0.673,-3.967,-5.859,-0.244
0.738,-0.030,0.663,-2.502,-2.869,-0.610
0.778,-0.048,0.670,-6.958,-11.047,-4.089
0.784,-0.047,0.656,-5.676,-11.658,-1.526
0.766,-0.037,0.653,-0.183,-2.380,3.052
0.763,-0.050,0.641,1.648,-3.235,2.686
0.741,-0.046,0.649,1.526,-7.324,2.075
0.737,-0.052,0.672,2.686,-6.470,0.732
0.725,-0.054,0.692,2.869,-6.653,2.197
0.728,-0.063,0.694,2.869,-2.869,0.549
0.740,-0.076,0.689,2.930,-2.441,0.061
0.748,-0.080,0.698,2.563,-2.563,1.526
0.746,-0.068,0.693,-0.610,-2.136,2.136
0.735,-0.052,0.687,0.061,0.366,2.869
0.725,-0.052,0.687,0.732,0.427,2.930
0.742,-0.056,0.689,-0.854,-1.526,0.854

0.744,-0.046,0.693,0.732,-1.831,0.427
0.727,-0.031,0.699,0.244,-1.160,1.770
0.709,-0.026,0.696,1.160,1.831,2.380
0.718,-0.038,0.689,-0.122,-1.465,-2.319
0.747,-0.047,0.685,0.183,-2.258,-2.441
0.758,-0.048,0.691,1.160,-1.404,0.244
0.740,-0.040,0.699,0.549,-0.549,1.709
0.730,-0.035,0.690,0.427,-0.122,1.038
0.733,-0.039,0.687,1.770,-0.793,0.122
0.726,-0.038,0.696,1.160,-1.038,-0.183
0.720,-0.031,0.690,2.502,1.831,0.366
0.730,-0.034,0.693,1.831,-0.122,-1.709
0.738,-0.025,0.685,1.343,-1.099,-2.258
0.749,-0.028,0.685,2.258,-2.563,-2.991
0.754,-0.011,0.703,2.625,-5.554,-3.906
0.775,0.020,0.724,2.014,-10.925,-7.080
0.833,0.042,0.741,-6.104,-30.151,-16.235
0.981,0.046,0.763,-8.789,-56.763,-21.667
1.027,0.135,0.833,5.859,-54.321,-0.671
1.054,0.249,0.822,14.282,-54.932,17.090
0.942,0.309,0.820,22.095,-77.820,28.748
0.671,0.377,0.875,43.823,-85.876,32.837
0.540,0.348,0.982,56.091,-85.693,28.320
0.450,0.352,0.971,31.799,-80.688,42.664
0.341,0.333,0.883,33.203,-67.566,35.217
0.332,0.275,0.885,53.650,-63.232,-0.549
0.376,0.143,0.952,76.111,-49.255,-38.269
0.385,0.070,0.970,58.838,-43.518,-51.819
0.243,0.001,0.856,24.963,-64.880,-80.444
0.196,-0.202,0.740,50.476,-42.419,-104.187
0.040,-0.614,0.649,62.683,-18.433,-109.436
-0.097,-0.842,0.611,44.189,-39.490,-158.875
-0.000,-1.082,0.526,33.020,-67.078,-177.734
0.027,-1.083,0.630,45.410,-18.921,-120.422
0.035,-1.063,0.685,41.626,13.062,-98.511
0.400,-0.967,0.620,33.020,40.161,-31.799
0.182,-0.850,0.816,16.968,5.005,18.250
-0.207,-0.461,0.924,-2.075,31.067,38.452
-0.084,-0.385,0.636,-16.907,-11.414,-13.489
0.135,-0.514,0.800,12.512,-30.151,-9.460
-0.098,-0.409,0.981,7.202,10.315,21.484
-0.002,-0.379,0.798,-0.732,10.864,-12.634
0.231,-0.521,0.816,5.981,-6.897,-23.010
0.170,-0.508,0.928,6.409,-7.507,-0.244
0.093,-0.439,0.842,2.502,10.315,8.362
0.159,-0.471,0.832,4.333,2.075,-7.751
0.201,-0.528,0.890,8.606,0.671,-5.005
0.221,-0.541,0.897,5.554,6.348,3.296
0.137,-0.518,0.895,2.075,7.141,8.240
0.129,-0.524,0.872,-0.244,0.610,3.418
0.155,-0.537,0.884,5.188,4.639,5.615
0.181,-0.598,0.886,-0.122,2.563,7.690
0.170,-0.662,0.924,-5.859,1.343,19.836
0.122,-0.614,0.852,-15.747,6.958,38.757
0.064,-0.554,0.736,-23.621,3.906,47.791
0.102,-0.528,0.669,-19.043,4.150,56.763
0.144,-0.583,0.716,-15.381,-12.817,71.045
0.057,-0.573,0.770,-19.226,-20.142,71.899
0.124,-0.491,0.743,-28.931,-23.743,45.105
0.152,-0.512,0.667,-13.855,-24.475,28.931
0.160,-0.649,0.729,-11.841,-28.748,24.475
0.109,-0.499,0.864,-18.616,1.953,49.316
0.050,-0.418,0.788,-24.170,24.475,39.551
0.085,-0.494,0.756,-33.630,3.418,14.954
0.263,-0.312,0.896,-26.428,38.940,32.593
0.228,-0.273,0.779,-45.044,52.856,42.786
0.200,-0.206,0.794,-32.532,54.810,21.118
0.395,-0.142,0.836,-37.354,52.246,4.639
0.390,-0.222,0.795,-34.485,55.115,6.958
0.507,-0.064,0.900,-13.000,79.468,5.920
0.568,-0.109,0.932,-15.137,78.186,0.000
0.617,-0.175,0.864,-30.823,67.566,-11.292
0.724,-0.018,0.766,-24.292,77.881,0.427
0.662,-0.006,0.759,-11.902,80.872,14.465
0.640,-0.064,0.865,-3.113,70.190,-3.479
0.714,-0.072,0.901,-10.864,60.974,-10.010
0.823,-0.030,0.866,-7.568,72.876,3.174
0.879,0.076,0.888,5.249,83.313,22.705
1.008,0.195,0.999,16.479,52.551,13.855
1.045,0.132,1.121,18.799,4.517,0.793
0.922,-0.085,0.980,-7.935,-12.085,10.376
0.788,-0.142,0.607,-23.804,18.860,38.391
0.692,-0.131,0.470,-9.155,24.170,38.940
0.627,-0.145,0.546,1.709,-2.258,17.029
0.584,-0.137,0.601,-0.916,-13.855,4.639
0.568,-0.134,0.634,7.568,-1.587,3.906
0.598,-0.135,0.697,6.714,1.038,-3.906
0.672,-0.145,0.733,1.343,-9.155,-11.536
0.720,-0.131,0.746,-0.183,-2.319,-9.888
0.770,-0.144,0.714,0.122,0.122,-7.019
0.778,-0.154,0.714,-2.319,-7.141,-5.554
0.761,-0.153,0.700,0.732,-3.357,0.549
0.737,-0.169,0.695,1.465,-1.038,2.686
0.706,-0.163,0.697,-0.610,-6.104,3.723
0.658,-0.128,0.693,2.014,0.183,4.578
0.648,-0.122,0.702,3.784,-0.244,-0.488
0.658,-0.135,0.724,2.014,-4.150,-4.333
0.689,-0.150,0.739,-0.549,-5.249,-7.751
0.722,-0.152,0.732,-2.319,-4.089,-5.676
0.739,-0.156,0.723,-2.075,-4.272,-4.089
0.741,-0.156,0.730,-2.563,-5.371,-2.197
0.711,-0.144,0.728,-1.038,-2.197,2.991
0.677,-0.135,0.729,-0.061,0.610,5.005
0.654,-0.130,0.725,-1.648,-1.526,3.052
0.658,-0.132,0.720,-1.282,-0.732,-0.488
0.670,-0.137,0.717,-1.282,0.244,-1.526
0.686,-0.141,0.713,-0.488,-0.122,-2.686
0.702,-0.145,0.714,-0.732,-0.671,-3.113
0.713,-0.143,0.704,-0.305,-0.793,-2.441
0.715,-0.148,0.710,0.732,-1.221,-1.709
0.701,-0.149,0.718,1.343,-2.136,-0.488
0.691,-0.148,0.727,2.502,-0.732,0.061
0.683,-0.155,0.732,1.465,-1.343,-0.122
0.685,-0.156,0.731,0.000,-1.831,-0.122
0.674,-0.151,0.729,0.244,0.488,0.427
0.686,-0.153,0.731,-0.366,-0.061,-1.892
0.696,-0.155,0.727,-2.014,-2.319,-2.441
0.707,-0.150,0.722,-1.709,-1.648,-1.526
0.703,-0.141,0.715,-0.061,0.061,0.366
0.689,-0.136,0.719,0.427,-0.122,0.977
0.683,-0.139,0.731,-0.061,-0.916,0.244
0.679,-0.142,0.724,0.427,0.671,-0.854
0.699,-0.155,0.726,-0.183,-2.136,-1.770
0.689,-0.153,0.730,-0.427,-1.709,-1.221
0.695,-0.154,0.730,-1.221,-1.282,0.000

0.699,-0.145,0.732,-1.343,-1.038,-0.854
0.671,-0.122,0.711,2.991,2.930,2.563
0.667,-0.109,0.714,4.089,0.610,0.427
0.704,-0.085,0.745,7.263,-0.977,-2.441
0.752,-0.092,0.766,10.254,-0.122,-4.761
0.791,-0.121,0.768,9.949,-5.981,-7.629
0.778,-0.125,0.756,11.108,-13.062,-4.517
0.722,-0.110,0.750,15.015,-14.160,3.418
0.653,-0.064,0.766,17.029,-16.785,5.432
0.630,-0.028,0.807,20.874,-20.081,-1.465
0.706,-0.014,0.867,20.935,-30.151,-10.620
0.794,0.021,0.917,24.536,-32.959,-5.432
0.852,0.098,0.949,30.884,-32.104,5.676
0.853,0.166,0.939,35.400,-38.757,12.146
0.855,0.086,0.925,31.433,-59.875,3.723
0.908,-0.040,0.979,23.010,-83.557,-7.202
0.814,-0.076,1.016,17.395,-92.407,-5.981
0.706,-0.094,1.003,18.921,-81.909,-1.465
0.534,-0.072,0.942,12.634,-63.904,9.705
0.364,-0.051,0.840,17.700,-44.434,1.160
0.224,-0.067,0.813,23.193,-38.696,-25.635
0.220,-0.184,0.821,19.592,-29.480,-39.673
0.116,-0.288,0.761,8.728,-8.789,-52.185
0.015,-0.438,0.630,5.493,-3.845,-82.581
-0.031,-0.617,0.579,10.620,-11.047,-115.173
-0.003,-0.769,0.543,-5.066,-18.372,-130.066
0.124,-0.961,0.516,-4.883,-22.217,-125.183
0.170,-0.986,0.645,15.259,0.305,-97.778
0.335,-0.878,0.678,19.409,19.104,-75.806
0.307,-0.757,0.718,18.311,27.283,-23.682
0.133,-0.572,0.869,11.475,1.953,-5.188
-0.020,-0.443,0.880,-2.930,-7.751,0.244
0.049,-0.444,0.880,-6.409,-22.949,-15.076
0.137,-0.465,0.922,-2.869,-23.560,-15.686
0.121,-0.445,0.907,-6.897,-13.367,-4.822
0.053,-0.383,0.882,-6.714,-7.324,-5.127
0.116,-0.400,0.876,-1.709,-3.906,-11.475
0.154,-0.463,0.887,-1.343,-6.653,-12.695
0.158,-0.472,0.899,0.549,1.587,-4.517
0.129,-0.440,0.870,0.244,10.315,1.404
0.153,-0.449,0.879,0.122,3.784,-3.784
0.166,-0.494,0.896,-2.075,-1.770,-2.686
0.118,-0.466,0.897,-2.808,3.845,4.456
0.138,-0.459,0.858,-2.380,7.996,3.540
0.160,-0.477,0.872,3.845,12.878,6.409
0.204,-0.513,0.910,2.075,13.794,9.888
0.221,-0.507,0.902,-0.793,13.977,15.198
0.210,-0.475,0.885,-1.282,13.184,17.273
0.221,-0.470,0.907,-4.333,1.892,12.817
0.228,-0.480,0.948,-9.216,-6.226,10.620
0.228,-0.482,0.924,-13.855,-4.456,15.198
0.219,-0.472,0.866,-13.306,2.747,21.912
0.225,-0.482,0.832,-9.399,9.705,28.015
0.194,-0.463,0.796,-6.104,12.207,31.616
0.187,-0.477,0.795,-5.859,0.610,28.320
0.177,-0.569,0.798,-8.301,-6.775,31.860
0.166,-0.556,0.759,-3.540,2.930,43.640
0.157,-0.580,0.739,1.831,7.019,46.753
0.191,-0.753,0.741,-3.296,-8.728,39.185
0.291,-0.683,0.807,-13.855,-2.319,54.810
0.230,-0.579,0.730,-24.841,23.499,91.064
0.164,-0.552,0.674,-30.945,31.372,85.693
0.233,-0.376,0.726,-23.743,28.625,75.500
0.281,-0.274,0.701,-33.020,39.063,66.833
0.324,-0.122,0.707,-32.410,39.551,58.777
0.437,-0.098,0.756,-19.531,47.485,38.696
0.457,-0.158,0.875,-26.794,34.729,21.484
0.572,-0.122,0.870,-27.527,29.297,7.751
0.673,-0.044,0.828,-29.419,70.435,20.691
0.558,0.113,0.816,-1.953,97.229,53.589
0.517,0.195,0.860,3.967,96.619,37.903
0.565,0.174,0.893,-20.264,56.396,6.775
0.641,0.190,0.831,-27.710,66.650,4.883
0.688,0.188,0.749,-20.752,81.543,5.798
0.730,0.176,0.803,-28.137,52.490,-10.803
0.807,0.195,0.777,-27.649,56.030,-1.831
0.817,0.245,0.702,-16.418,68.787,8.179
0.821,0.253,0.686,-5.310,49.133,2.930
0.857,0.183,0.704,1.892,12.634,-16.296
0.915,0.059,0.786,-5.310,-17.822,-28.687
0.949,-0.053,0.779,-19.409,-26.611,-27.954
0.949,-0.113,0.728,-21.667,-25.146,-18.860
0.873,-0.113,0.711,-18.311,-18.555,-10.193
0.781,-0.096,0.695,-12.146,-8.484,-0.916
0.730,-0.069,0.693,-4.517,-3.723,1.648
0.710,-0.052,0.702,0.000,0.793,3.174
0.712,-0.037,0.701,-2.075,2.319,1.465
0.729,-0.034,0.670,-5.432,2.686,-0.244
0.752,-0.043,0.624,-5.676,5.554,-0.793
0.780,-0.047,0.621,-1.038,5.798,-1.953
0.788,-0.035,0.615,-1.465,2.502,-0.122
0.780,-0.026,0.623,1.709,1.099,-0.671
0.792,-0.053,0.663,3.479,-5.554,-1.465
0.768,-0.084,0.670,2.258,-9.705,-0.061
0.753,-0.124,0.714,4.028,-7.690,1.587
0.724,-0.129,0.730,-0.610,-6.897,3.723
0.727,-0.133,0.704,-3.540,-5.127,1.709
0.729,-0.124,0.678,-3.357,-0.916,4.517
0.717,-0.074,0.640,1.831,7.568,8.911
0.705,-0.015,0.648,7.385,14.404,10.437
0.733,0.000,0.667,1.099,2.502,0.671
0.748,-0.016,0.687,-3.113,-9.949,-3.723
0.744,-0.063,0.720,-4.089,-9.888,-6.470
0.758,-0.115,0.745,-8.972,-12.573,-5.554
0.744,-0.124,0.745,-9.460,-6.897,-2.014
0.749,-0.109,0.743,-10.742,2.319,2.014
0.729,-0.054,0.711,-11.169,6.287,5.676
0.724,0.010,0.686,-9.460,10.132,6.348
0.733,0.052,0.640,-4.395,14.160,6.287
0.742,0.071,0.627,-3.845,12.390,3.784
0.751,0.052,0.607,-7.141,4.028,-1.160
0.758,0.015,0.619,-3.113,-4.150,-5.127
0.747,-0.026,0.651,-0.549,-6.714,-7.080
0.756,-0.086,0.659,-2.075,-10.742,-9.827
0.747,-0.102,0.668,-2.930,-12.817,-7.263
0.725,-0.091,0.708,2.502,-2.625,-1.709
0.717,-0.062,0.719,2.014,2.808,-0.854
0.712,-0.025,0.712,-0.366,2.197,-1.831
0.733,-0.008,0.700,-1.953,3.052,-3.296
0.762,-0.004,0.680,-2.869,2.136,-4.089
0.771,-0.012,0.659,-1.770,0.977,-4.089
0.788,-0.050,0.649,-1.038,-1.648,-4.639
0.779,-0.073,0.660,-2.625,-8.240,-4.028
0.747,-0.077,0.682,-1.953,-8.850,-2.014
0.730,-0.070,0.695,0.671,-3.113,0.183

0.733,-0.045,0.699,0.488,1.343,-0.061
0.732,-0.048,0.692,0.610,0.183,-0.916
0.736,-0.050,0.682,0.732,-1.587,-0.671
0.732,-0.047,0.690,1.282,-1.404,-0.610
0.726,-0.036,0.696,1.160,-0.427,0.122
0.729,-0.041,0.698,0.427,-1.587,-1.831
0.742,-0.052,0.698,-0.305,-2.991,-2.502
0.739,-0.044,0.692,0.549,-2.258,-0.671
0.732,-0.041,0.710,1.526,-0.916,-0.305
0.739,-0.043,0.714,-0.244,-3.906,-0.916
0.734,-0.046,0.702,0.305,-2.747,0.854
0.730,-0.049,0.706,1.160,-2.014,1.343
0.725,-0.037,0.695,2.197,-3.601,2.869
0.713,-0.034,0.703,3.906,-2.014,3.784
0.698,-0.026,0.699,2.747,-1.465,2.625
0.685,-0.005,0.680,4.517,0.793,3.174
0.687,-0.001,0.651,7.507,1.892,0.610
0.695,-0.049,0.664,12.268,-7.690,-9.033
0.707,-0.083,0.769,11.902,-21.301,-17.151
0.729,-0.075,0.776,15.686,-9.705,-12.878
0.770,-0.026,0.728,20.996,0.000,-8.118
0.820,0.010,0.760,35.706,0.244,-6.104
0.860,0.064,0.834,39.673,-10.681,-8.057
0.912,0.125,0.908,30.396,-40.344,-13.123
0.984,0.205,0.920,28.015,-59.326,-8.240
0.961,0.331,0.900,39.673,-55.847,13.794
0.860,0.404,0.918,53.040,-57.739,28.625
0.792,0.413,0.947,53.467,-84.290,9.827
0.852,0.294,1.052,43.823,-114.746,-13.184
0.809,0.160,1.081,33.875,-95.520,18.433
0.532,0.194,0.936,37.048,-61.523,23.132
0.259,0.209,0.812,37.109,-61.584,-28.015
0.141,0.029,0.682,50.110,-55.542,-86.487
0.158,-0.240,0.651,45.898,-29.175,-84.595
-0.049,-0.459,0.436,50.110,5.127,-91.187
-0.183,-0.860,0.326,56.335,-16.296,-157.715
-0.034,-1.358,0.408,38.452,-72.754,-207.703
0.264,-1.392,0.601,29.785,-65.186,-168.884
0.274,-1.249,0.726,31.860,-26.733,-128.113
0.217,-0.908,0.747,15.991,6.165,-62.012
0.086,-0.643,0.569,-13.367,18.738,1.526
-0.152,-0.498,0.689,-2.869,3.540,15.869
-0.224,-0.449,0.827,12.268,10.010,6.958
0.016,-0.505,0.738,-1.221,-2.258,-15.747
0.106,-0.573,0.766,-0.122,-26.001,-18.066
-0.001,-0.542,0.888,6.958,-13.489,0.732
-0.020,-0.491,0.804,3.418,3.479,1.770
0.074,-0.521,0.746,7.874,2.197,-6.653
0.090,-0.571,0.869,7.080,-12.817,-8.667
-0.028,-0.520,0.910,6.042,-1.099,-1.221
0.064,-0.560,0.819,0.793,-1.648,-13.977
0.127,-0.628,0.862,2.014,-13.123,-15.015
0.066,-0.594,0.907,0.732,-7.446,-3.662
0.043,-0.560,0.844,-1.465,1.770,-0.732
0.077,-0.584,0.828,0.366,-4.150,-5.615
0.118,-0.630,0.898,-0.916,-8.362,-4.456
0.071,-0.616,0.924,-4.272,-0.366,4.272
0.038,-0.572,0.875,-3.967,9.949,8.484
0.047,-0.550,0.858,-3.906,4.761,1.526
0.068,-0.577,0.898,-6.470,0.549,2.258
0.015,-0.558,0.905,-7.812,8.423,4.578
0.039,-0.559,0.852,-6.104,14.282,5.249
0.047,-0.588,0.881,-3.113,16.846,14.526
-0.017,-0.528,0.873,-4.761,23.254,22.888
-0.027,-0.514,0.795,-7.812,17.395,16.724
0.028,-0.581,0.756,-8.728,10.681,14.587
0.076,-0.657,0.738,-10.986,9.155,24.353
0.120,-0.704,0.710,-0.366,29.236,46.082
0.126,-0.726,0.703,6.653,42.786,62.988
0.124,-0.830,0.668,-18.921,-1.953,48.218
0.216,-0.727,0.637,-32.715,-0.916,49.683
0.131,-0.650,0.575,-19.653,27.039,76.843
0.117,-0.575,0.601,-34.180,11.963,61.829
0.226,-0.505,0.702,-33.386,2.014,40.283
0.293,-0.478,0.752,-32.104,18.799,41.809
0.296,-0.399,0.753,-35.767,34.180,48.523
0.331,-0.323,0.715,-43.518,34.668,33.813
0.351,-0.291,0.766,-38.086,41.321,27.832
0.401,-0.125,0.766,-37.231,65.674,34.363
0.474,-0.096,0.684,-42.297,69.275,18.738
0.544,-0.134,0.717,-38.208,52.979,-5.432
0.577,-0.121,0.832,-22.644,53.833,-0.671
0.568,-0.070,0.813,-31.250,93.628,4.700
0.643,-0.019,0.662,-28.564,116.699,-0.122
0.750,0.044,0.666,-30.029,75.317,8.118
0.788,0.059,0.760,-23.987,105.164,14.160
0.841,0.162,0.770,-14.771,119.019,25.940
1.041,0.328,0.726,-6.165,96.741,17.761
1.157,0.272,0.820,25.452,-0.671,-7.141
1.078,-0.028,1.097,42.847,-55.664,-16.113
1.025,-0.162,1.038,14.832,-15.076,3.540
0.901,-0.238,0.758,-4.944,7.019,24.658
0.808,-0.232,0.719,-7.385,-0.061,21.301
0.708,-0.170,0.654,-20.752,-7.996,24.353
0.649,-0.147,0.597,-17.029,0.732,23.132
0.630,-0.139,0.662,-3.052,-4.089,14.709
0.618,-0.128,0.761,0.000,-11.414,4.822
0.668,-0.126,0.772,-9.888,-4.211,-1.892
0.720,-0.097,0.712,-16.418,3.052,-1.648
0.761,-0.062,0.635,-16.602,8.301,1.892
0.779,-0.053,0.597,-13.672,1.648,-0.671
0.800,-0.088,0.637,-8.179,-9.155,-5.737
0.820,-0.127,0.671,-9.521,-17.517,-8.301
0.788,-0.135,0.669,-10.620,-15.747,-1.892
0.760,-0.130,0.657,-4.150,-8.179,3.296
0.711,-0.111,0.684,-2.136,-10.437,7.080
0.681,-0.072,0.720,0.549,-8.240,10.010
0.695,-0.064,0.742,-1.038,-6.470,5.737
0.699,-0.070,0.738,-2.075,-6.592,3.723
0.694,-0.090,0.715,-1.160,-5.554,4.761
0.692,-0.099,0.715,0.000,-7.446,5.188
0.674,-0.103,0.710,-2.319,-8.484,2.869
0.680,-0.121,0.707,-1.526,-6.653,3.418
0.665,-0.108,0.719,1.648,-3.296,4.639
0.667,-0.080,0.724,-0.549,-3.357,4.456
0.662,-0.071,0.704,0.305,-3.906,2.258
0.653,-0.064,0.714,2.869,-2.136,0.183
0.653,-0.075,0.732,-0.244,-4.761,-4.211
0.660,-0.079,0.740,-3.174,-6.104,-5.066
0.656,-0.063,0.729,-0.732,0.366,-1.160
0.645,-0.050,0.729,2.808,8.850,0.366
0.693,-0.083,0.727,1.709,3.479,-6.897
0.769,-0.151,0.737,-0.916,-2.808,-11.902
0.832,-0.198,0.735,-6.165,-10.803,-8.850
0.787,-0.168,0.769,-0.366,-1.953,8.179

0.687,-0.115,0.721,1.221,0.061,-1.465
0.693,-0.145,0.728,0.854,-2.991,-1.343
0.667,-0.138,0.747,1.526,-1.221,4.211
0.625,-0.087,0.748,4.272,7.324,8.728
0.647,-0.071,0.762,4.028,3.479,0.854
0.696,-0.099,0.761,6.348,-2.747,-3.662
0.754,-0.133,0.753,7.019,-4.028,-1.343
0.767,-0.143,0.736,3.601,-4.333,0.549
0.717,-0.119,0.724,4.883,-2.991,4.517
0.667,-0.101,0.730,2.014,-2.441,1.465
0.664,-0.107,0.722,3.296,-4.272,0.610
0.664,-0.104,0.730,3.235,-2.380,-1.282
0.676,-0.102,0.739,1.953,-3.479,-4.822
0.681,-0.097,0.740,1.343,-5.066,-6.531
0.686,-0.096,0.728,4.150,-4.761,-5.920
0.683,-0.109,0.724,9.705,-5.493,-6.531
0.685,-0.119,0.735,9.705,-8.972,-8.118
0.690,-0.123,0.741,10.925,-11.902,-8.728
0.689,-0.109,0.742,14.465,-11.658,-6.897
0.691,-0.099,0.763,18.555,-13.794,-7.019
0.697,-0.096,0.837,21.240,-19.592,-9.033
0.755,-0.093,0.886,23.987,-21.790,-9.766
0.837,-0.083,0.958,27.832,-29.053,-6.836
0.893,-0.015,1.045,30.396,-43.152,2.747
0.933,0.085,1.061,30.396,-54.932,14.587
0.907,0.157,1.085,27.039,-79.590,22.095
0.831,0.163,1.102,35.461,-90.637,24.963
0.806,0.068,1.116,31.982,-102.112,21.790
0.681,0.096,1.053,-3.784,-108.459,53.162
0.490,0.132,0.893,3.723,-66.833,66.528
0.283,0.138,0.841,23.743,-62.134,39.734
0.104,0.087,0.813,34.607,-66.589,-20.264
0.147,-0.062,0.855,39.001,-56.091,-59.265
0.118,-0.154,0.817,4.639,-24.353,-28.381
-0.079,-0.235,0.520,18.066,17.700,-56.580
-0.158,-0.489,0.407,30.823,-3.174,-116.699
-0.116,-0.675,0.466,23.132,-13.855,-128.784
-0.068,-0.858,0.346,36.011,7.202,-143.799
0.048,-0.919,0.423,42.297,1.892,-136.353
0.116,-0.914,0.486,45.288,-3.540,-115.601
0.240,-0.926,0.742,46.692,-17.639,-89.111
0.293,-0.885,0.924,27.344,-4.333,-25.208
-0.019,-0.659,0.915,14.099,11.719,16.785
-0.143,-0.499,0.844,1.770,-0.061,-5.981
0.069,-0.539,0.765,7.019,-21.851,-20.020
0.124,-0.605,0.899,13.672,-24.475,-6.409
-0.029,-0.512,0.950,8.423,-9.399,5.737
0.089,-0.531,0.807,8.057,4.761,1.892
0.055,-0.592,0.926,14.771,-8.362,-1.282
0.036,-0.591,0.975,5.859,-5.310,3.418
0.037,-0.545,0.876,1.343,8.301,10.315
0.042,-0.492,0.863,3.662,5.676,4.028
0.028,-0.495,0.872,-0.244,-7.812,-6.836
0.043,-0.526,0.909,-1.221,-12.024,-13.367
0.075,-0.557,0.902,-0.977,-6.470,-15.686
0.121,-0.580,0.913,1.160,-0.732,-13.184
0.097,-0.565,0.897,-0.793,7.446,-2.869
0.119,-0.531,0.859,-2.991,11.292,-2.014
0.133,-0.535,0.860,-5.371,2.258,-1.953
0.080,-0.519,0.883,-6.531,1.282,1.892
0.075,-0.495,0.858,-6.836,5.737,2.502
0.076,-0.489,0.828,-2.380,9.460,2.686
0.093,-0.513,0.854,-0.977,5.432,-3.174
0.110,-0.509,0.838,-2.625,7.568,-2.441
0.122,-0.505,0.824,4.211,17.456,7.080
0.109,-0.505,0.826,20.752,45.288,26.733
0.115,-0.537,0.849,10.620,32.471,17.151
0.164,-0.562,0.823,-7.202,1.221,5.859
0.184,-0.571,0.843,1.587,4.761,13.123
0.190,-0.570,0.830,3.113,6.165,17.822
0.160,-0.568,0.884,1.221,6.104,21.790
0.098,-0.529,0.908,-4.028,13.611,23.865
0.117,-0.528,0.827,-3.845,14.648,19.897
0.135,-0.644,0.785,-10.498,-7.202,15.076
0.163,-0.761,0.905,-27.100,-40.466,21.667
0.099,-0.660,0.890,-36.438,-34.912,46.021
-0.062,-0.528,0.750,-26.306,5.493,71.167
-0.070,-0.452,0.683,-15.930,22.095,60.242
0.037,-0.437,0.659,-7.874,27.649,49.561
0.224,-0.487,0.710,0.183,31.555,39.185
0.231,-0.591,0.710,-4.089,13.794,39.185
0.314,-0.652,0.810,-19.287,-3.418,22.217
0.343,-0.551,0.787,-33.447,-4.700,38.940
0.364,-0.586,0.824,-33.081,10.986,57.861
0.336,-0.398,0.807,-64.941,3.296,80.688
0.255,-0.365,0.810,-43.274,11.902,64.819
0.349,-0.371,1.001,-25.635,-0.122,27.649
0.465,-0.289,0.987,-37.781,9.827,19.714
0.512,-0.316,0.914,-31.433,45.532,26.367
0.483,-0.214,0.843,-35.156,59.143,32.715
0.476,-0.082,0.763,-42.847,82.275,33.875
0.465,-0.036,0.730,-49.683,80.200,30.945
0.431,0.059,0.757,-57.068,76.416,27.222
0.500,0.104,0.604,-65.063,95.459,24.536
0.525,0.096,0.548,-55.176,121.216,30.457
0.524,0.154,0.589,-57.922,122.559,25.696
0.618,0.205,0.531,-62.683,118.530,22.583
0.667,0.228,0.503,-55.603,130.920,23.132
0.718,0.307,0.508,-41.382,161.987,32.532
0.805,0.500,0.460,-38.452,163.757,32.166
1.087,0.933,0.306,-9.644,197.571,29.480
1.266,0.856,0.086,128.418,264.771,43.823
1.325,0.102,0.220,266.968,344.360,19.836
1.791,-0.167,0.310,46.509,103.455,-14.099
1.436,-0.063,-0.038,-68.604,-58.289,-4.333
1.045,0.097,0.088,4.639,-39.490,32.898
0.833,0.184,0.269,16.724,-23.437,34.668
0.845,0.120,0.289,-4.822,-46.143,2.075
0.891,0.077,0.348,-2.441,-77.576,-18.188
0.956,0.052,0.331,-21.179,-65.735,-20.142
0.980,0.079,0.197,-27.161,-10.376,1.343
0.943,0.151,0.142,-11.658,15.198,16.968
0.946,0.177,0.147,-9.766,-2.930,5.371
0.997,0.154,0.187,-20.874,-36.255,-13.245
1.006,0.142,0.219,-25.696,-49.316,-16.724
0.982,0.138,0.250,-22.339,-39.734,-11.108
0.960,0.144,0.277,-15.015,-25.635,-1.404
0.937,0.150,0.275,-11.841,-23.315,0.000
0.936,0.141,0.278,-10.376,-28.870,-3.357
0.914,0.151,0.319,-5.737,-27.771,-0.610
0.893,0.163,0.330,-4.395,-20.142,-0.977
0.898,0.153,0.325,-4.150,-19.714,-7.202
0.916,0.135,0.339,-3.479,-21.790,-9.277
0.917,0.124,0.357,-3.845,-22.705,-7.812
0.930,0.102,0.386,-0.427,-20.996,-5.615

0.906,0.293,0.160,5.005,0.549,-6.958
0.903,0.305,0.148,-2.014,0.061,-3.906
0.910,0.355,0.122,-9.033,3.235,-5.920
0.903,0.352,0.070,-5.310,4.761,-26.062
0.965,0.344,0.036,-1.770,11.169,-13.428
1.006,0.277,0.037,0.061,5.432,-11.841
0.984,0.224,0.042,4.211,4.639,-7.507
0.968,0.211,0.053,9.705,-7.019,-5.249
0.948,0.270,0.068,14.832,-13.428,-8.667
0.900,0.339,0.083,9.216,-19.653,-13.367
0.916,0.349,0.068,8.789,-25.635,-20.569
0.915,0.384,0.040,10.742,-56.030,-23.499
0.915,0.392,0.114,3.723,-114.746,-32.410
0.924,0.503,0.267,-9.277,-121.155,-28.870
0.908,0.682,0.303,-14.648,-117.432,-59.570
1.059,0.594,0.389,7.874,-128.235,-76.782
1.231,0.445,0.662,16.235,-92.834,-18.433
1.187,0.670,0.566,-33.081,-95.520,11.292
1.121,0.783,0.456,-8.118,-115.112,11.047
1.027,0.575,0.553,45.349,-96.741,-18.250
1.024,0.337,0.716,0.610,-82.214,8.057
0.749,0.541,0.442,-45.227,-93.140,19.043
0.586,0.571,0.353,46.448,-60.242,-43.396
0.612,0.015,0.242,69.885,-98.145,-109.985
0.667,-0.422,0.572,-30.518,-233.337,-71.655
0.241,-0.250,0.721,-9.155,-206.238,-12.756
0.112,-0.345,0.591,97.290,-75.928,-39.185
0.186,-0.568,0.608,126.892,-11.902,-76.599
0.304,-0.795,0.631,78.918,-13.123,-96.558
0.206,-0.764,0.668,60.059,-69.092,-95.825
0.287,-0.732,0.894,109.375,-63.782,-84.290
0.394,-0.747,1.079,39.917,-4.395,-56.030
0.317,-0.672,0.975,3.174,-7.263,-36.316
0.104,-0.457,0.901,7.202,-5.981,-2.441
0.085,-0.378,0.829,9.827,2.380,0.488
0.151,-0.532,0.948,10.681,-6.165,-3.052
0.212,-0.643,1.044,17.822,5.981,12.695
0.330,-0.875,0.983,25.146,23.743,23.987
0.242,-0.877,0.885,34.424,26.489,48.279
0.365,-0.815,0.818,48.706,70.557,64.148
0.274,-0.709,0.803,2.197,66.772,83.679
0.286,-0.703,0.684,-70.557,28.381,66.650
0.277,-0.368,0.684,-18.677,60.791,71.533
0.342,-0.370,0.543,-4.944,110.596,75.439
0.436,-0.186,0.551,-78.125,104.248,59.814
0.568,-0.008,0.405,-49.622,160.828,51.453
0.504,-0.116,0.330,-51.453,165.527,63.843
0.627,0.220,0.358,-67.993,148.682,74.585
0.761,0.414,0.308,-17.944,144.348,39.368
0.805,0.329,0.176,-47.119,131.531,45.593
0.864,0.262,0.208,-68.420,75.928,32.166
0.928,0.431,0.476,-23.682,73.975,29.175
0.910,0.480,0.394,-26.184,102.234,-20.508
1.241,0.247,0.329,-41.199,88.013,-48.706
1.483,0.326,0.469,-26.794,40.771,-12.756
1.756,1.005,0.433,12.817,40.222,-29.053
1.556,0.496,0.265,-19.226,27.588,26.672
1.212,0.114,0.211,-11.658,-18.738,44.128
1.000,-0.074,0.204,-27.100,-59.326,41.870
0.914,0.027,0.171,-24.597,-53.589,38.330
0.826,0.024,0.190,20.264,8.484,31.067
0.772,0.108,0.219,22.400,22.949,23.132
0.802,0.156,0.200,1.282,11.536,5.981
0.888,0.131,0.217,2.686,1.953,-8.179
0.969,0.071,0.281,13.000,4.089,-1.038
0.900,0.181,0.264,8.667,1.282,12.939
0.892,0.174,0.230,3.113,-0.732,2.319
0.971,0.106,0.241,4.639,2.014,-12.512
1.006,0.076,0.285,-1.465,1.648,-3.479
0.942,0.144,0.229,-2.563,11.597,5.676
0.934,0.144,0.172,1.099,17.151,-4.639
0.989,0.083,0.223,5.798,2.930,-11.841
0.986,0.108,0.273,3.174,-1.099,-0.549
0.958,0.156,0.259,2.380,-0.244,-1.892
0.971,0.132,0.296,8.423,-7.263,-7.080
0.998,0.084,0.327,7.019,-1.709,-1.953
0.983,0.092,0.284,-0.122,2.075,4.333
0.975,0.088,0.248,-0.244,-1.831,-0.916
0.949,0.088,0.233,-2.197,-9.705,-0.671
0.953,0.075,0.251,-4.517,-15.198,-0.610
0.969,0.073,0.269,-4.456,-7.507,2.319
0.952,0.100,0.269,-2.930,-2.441,2.319
0.947,0.111,0.263,-1.465,-7.019,1.221
0.926,0.137,0.277,-5.554,-16.418,-4.456
0.990,0.078,0.309,-13.672,-28.503,-2.869
0.972,0.098,0.320,-13.794,-20.325,3.357
0.936,0.142,0.307,-11.169,-9.399,1.709
0.947,0.140,0.293,-6.836,-5.737,0.732
0.942,0.135,0.291,0.305,2.380,1.648
0.934,0.139,0.274,-5.127,-3.235,2.869
0.937,0.134,0.274,-2.502,-10.620,1.038
0.949,0.114,0.295,1.038,-9.094,0.549
0.953,0.111,0.303,2.625,-2.869,1.587
0.948,0.113,0.302,2.136,-0.427,0.549
0.948,0.117,0.304,5.859,1.526,0.183
0.948,0.117,0.316,5.310,-1.160,1.038
0.939,0.118,0.328,2.563,-3.357,2.808
0.931,0.125,0.331,0.977,-6.409,1.465
0.932,0.118,0.333,1.038,-4.883,-0.183
0.931,0.124,0.325,1.526,-0.854,-0.061
0.943,0.116,0.329,0.427,-4.333,-1.038
0.945,0.125,0.322,-1.221,-4.761,0.305
0.955,0.119,0.322,2.258,-4.333,1.282
0.950,0.114,0.339,2.869,-5.005,2.258
0.929,0.135,0.336,-0.061,-8.789,3.540
0.934,0.120,0.353,-0.122,-8.118,1.160
0.929,0.120,0.347,-1.404,-4.700,1.221
0.912,0.135,0.334,2.380,-1.587,0.549
0.929,0.127,0.343,3.601,-3.906,0.732
0.935,0.117,0.357,2.441,-4.883,1.648
0.921,0.110,0.366,0.610,-2.136,-0.122
0.934,0.099,0.354,0.183,1.038,-0.427
0.929,0.111,0.339,1.831,0.488,2.014
0.915,0.134,0.348,2.197,-0.183,1.587
0.912,0.137,0.355,3.052,-2.808,-0.488
0.926,0.130,0.375,1.465,-4.822,-1.526
0.938,0.117,0.378,-0.122,-4.333,0.854
0.936,0.125,0.372,-0.854,-0.488,0.977
0.942,0.124,0.357,-1.709,1.099,-0.610
0.931,0.126,0.346,-1.343,1.648,2.075
0.932,0.127,0.335,-1.892,-0.549,3.174
0.919,0.139,0.348,-1.648,-3.113,2.563
0.904,0.141,0.345,-1.953,-0.488,0.549
0.921,0.126,0.347,-1.465,-0.916,-1.099
0.919,0.135,0.344,-1.099,-0.122,0.061

0.908,0.133,0.371,-0.366,-1.892,-0.244
0.917,0.126,0.381,0.366,-2.686,-0.061
0.910,0.134,0.382,-0.793,-2.258,0.916
0.912,0.134,0.381,-1.465,-2.686,-0.061
0.912,0.126,0.392,-0.122,-2.747,-0.854
0.909,0.130,0.401,-0.427,-1.526,0.854
0.902,0.130,0.397,-0.977,-0.427,1.221
0.903,0.134,0.395,-0.732,-0.977,0.427
0.916,0.123,0.390,-0.610,-1.160,-0.610
0.908,0.136,0.387,-0.977,0.183,1.770
0.898,0.148,0.387,-0.427,0.000,0.610
0.913,0.130,0.379,-0.427,-0.122,-0.610
0.926,0.123,0.388,-0.549,-1.465,0.244
0.908,0.138,0.390,-1.099,-0.610,1.648
0.903,0.139,0.390,-1.221,0.061,0.671
0.896,0.143,0.386,0.000,0.244,0.000
0.908,0.131,0.389,0.000,-1.404,-0.549
0.899,0.142,0.393,0.183,-0.977,0.610
0.895,0.147,0.392,0.244,-0.671,-0.549
0.880,0.152,0.394,-0.854,-2.258,-2.136
0.884,0.164,0.390,-0.793,-2.075,-4.822
0.932,0.225,0.397,0.793,-2.625,-6.592
1.049,0.318,0.444,5.249,-8.301,-9.460
1.160,0.429,0.574,0.244,-35.583,-8.240
1.120,0.645,0.606,-3.052,-51.147,-1.282
1.084,0.835,0.508,15.442,-43.823,-3.601
1.180,0.812,0.503,26.489,-79.468,-13.733
1.280,0.724,0.685,7.080,-132.141,-9.949
1.146,0.941,0.665,-11.353,-115.723,17.883
0.867,0.992,0.413,-0.122,-83.374,16.602
0.592,0.760,0.311,25.391,-106.934,-27.771
0.537,0.054,0.281,36.621,-140.137,-91.614
0.462,-0.320,0.437,-0.854,-173.828,-78.003
0.060,-0.446,0.347,17.456,-143.066,-56.580
-0.103,-0.740,0.347,65.125,-123.291,-84.106
0.068,-1.173,0.646,115.601,-101.318,-106.262
0.180,-1.109,0.752,90.210,-13.611,-119.202
0.323,-0.975,0.560,53.711,10.742,-102.234
0.507,-0.934,0.924,76.782,-8.789,-47.913
0.404,-0.834,1.024,54.138,11.414,7.019
-0.076,-0.486,1.036,20.081,-3.479,16.357
0.049,-0.492,0.955,-7.874,-24.353,-6.653
0.244,-0.660,1.025,3.052,-13.611,1.526
0.262,-0.782,1.146,6.531,-19.531,20.691
0.201,-0.768,1.178,7.080,6.226,42.480
0.141,-0.810,1.080,-9.949,42.480,54.504
0.295,-0.930,0.888,-14.832,73.669,65.796
0.330,-0.795,0.935,-30.273,97.412,112.305
0.301,-0.655,0.813,-82.886,105.713,113.892
0.324,-0.644,0.658,-93.506,74.829,103.882
0.315,-0.344,0.705,-57.495,76.782,98.145
0.265,-0.275,0.542,-82.642,89.966,88.562
0.340,0.075,0.374,-64.087,105.591,59.631
0.521,0.233,0.246,-17.517,140.259,50.232
0.519,0.096,0.274,-59.509,99.121,37.781
0.745,0.379,0.320,-55.969,101.257,24.231
0.786,0.545,0.212,-10.925,139.343,18.616
0.770,0.416,0.209,-53.528,105.957,8.545
0.810,0.568,0.291,-47.241,96.313,5.554
0.915,0.792,0.313,-2.014,136.719,-15.808
1.156,0.785,0.233,-47.363,123.474,-52.307
1.431,0.759,-0.059,-81.726,80.444,-53.650
1.687,0.927,-0.110,-13.916,50.659,-40.039
1.455,0.545,0.144,33.630,-6.653,8.057
1.092,0.293,0.334,21.729,-63.232,32.227
0.996,0.101,0.309,-0.244,-74.646,13.123
0.976,0.031,0.279,-1.099,-50.354,8.179
0.868,0.044,0.256,12.024,-15.625,21.118
0.819,0.059,0.294,6.531,-3.723,13.672
0.844,0.072,0.347,1.526,1.099,4.578
0.893,0.096,0.367,4.944,11.658,6.836
0.885,0.173,0.330,0.610,18.311,9.155
0.908,0.219,0.307,-6.470,6.226,-3.235
0.937,0.232,0.348,-0.732,-6.714,-12.634
0.936,0.239,0.339,6.287,0.427,-9.949
0.918,0.237,0.284,1.709,-1.038,-10.193
0.945,0.207,0.261,-4.395,-7.385,-13.306
1.015,0.133,0.223,-2.808,-11.536,-12.695
0.982,0.138,0.217,6.042,-12.329,-1.770
0.937,0.146,0.267,10.925,-6.653,-0.732
0.943,0.124,0.283,12.817,-1.160,0.610
0.957,0.104,0.246,17.944,-2.869,-3.906
0.941,0.111,0.273,21.423,-12.512,-3.113
0.944,0.101,0.296,21.667,-13.367,-1.404
0.934,0.102,0.276,23.804,-13.916,1.221
0.962,0.096,0.301,25.757,-18.494,0.183
0.968,0.135,0.298,25.818,-14.832,1.038
0.949,0.096,0.279,26.672,-16.785,-0.183
0.954,0.057,0.378,18.005,-28.381,-6.348
0.966,0.081,0.349,36.499,-11.536,10.010
0.938,0.095,0.249,54.810,6.409,5.493
0.890,0.108,0.267,63.477,17.700,17.151
0.878,0.072,0.274,40.710,15.320,27.710
0.869,0.068,0.358,48.767,13.550,26.978
0.866,0.072,0.439,55.298,14.709,18.860
0.887,0.074,0.534,53.223,-3.723,17.029
0.879,0.064,0.519,38.391,-12.817,15.015
0.923,0.041,0.580,31.555,-19.470,4.822
0.936,0.028,0.572,19.714,-25.757,1.526
0.963,0.058,0.489,8.667,-22.400,8.667
0.960,0.040,0.483,-6.958,-17.700,13.672
0.943,0.068,0.524,-1.587,-23.132,15.015
0.937,0.097,0.526,-1.526,-10.559,23.621
0.924,0.077,0.470,-12.085,7.874,7.141
0.874,0.126,0.423,-8.972,-4.944,3.052
0.869,0.136,0.390,-6.348,-5.371,6.226
0.885,0.137,0.427,-7.996,-27.466,1.648
0.866,0.155,0.412,-3.601,-21.851,-2.380
0.871,0.160,0.376,17.151,-3.296,-9.766
0.917,0.091,0.441,24.414,-7.080,-11.658
0.905,0.102,0.464,12.085,-28.687,-15.991
0.871,0.093,0.503,-1.221,-37.903,-7.935
0.865,0.078,0.528,11.597,-30.334,-5.920
0.845,0.078,0.541,27.405,-21.851,-6.348
0.849,0.061,0.586,20.081,-18.372,-10.620
0.855,0.034,0.647,3.479,-22.278,-6.470
0.859,0.034,0.621,6.409,-14.893,-4.639
0.848,0.032,0.602,14.832,-8.423,-6.592
0.839,0.038,0.586,5.737,-7.507,-3.235
0.823,0.051,0.573,-0.549,-9.277,-2.441
0.833,0.042,0.580,5.188,-7.568,-3.174
0.827,0.049,0.594,11.475,-6.104,-4.272
0.804,0.046,0.586,8.362,-10.071,-7.446
0.814,0.023,0.581,1.770,-8.850,-8.301
0.842,0.010,0.605,4.272,-2.625,-6.470

0.883,0.017,0.555,0.549,-2.625,1.343
0.867,0.022,0.575,0.305,-3.479,5.066
0.864,0.031,0.566,2.380,0.000,3.479
0.879,0.012,0.562,3.540,-5.005,3.235
0.852,0.022,0.595,2.991,-10.742,6.470
0.833,0.030,0.626,-1.831,-11.597,3.601
0.840,0.029,0.615,-6.775,-12.146,-0.061
0.836,0.064,0.601,-5.493,-16.541,-1.831
0.842,0.115,0.668,-7.141,-18.555,-3.601
0.892,0.189,0.714,-16.174,-11.475,-16.418
0.951,0.227,0.708,-32.715,-43.579,-12.329
0.920,0.364,0.790,-26.733,-69.397,-2.747
0.755,0.600,0.864,-11.047,-64.697,1.099
0.702,0.703,0.796,-15.625,-76.111,-21.606
0.709,0.556,0.901,3.662,-117.676,-42.603
0.775,0.404,1.139,-20.264,-80.872,-17.883
0.598,0.534,0.879,-59.021,-53.955,-9.460
0.457,0.651,0.694,-40.344,-81.177,-41.504
0.499,0.283,0.856,30.823,-68.115,-85.022
0.545,0.019,0.937,-9.033,-39.551,-52.673
0.366,0.048,0.679,-59.143,-74.890,-54.993
0.204,-0.243,0.727,13.794,-75.806,-87.036
0.148,-0.576,0.804,50.781,-44.373,-116.882
0.057,-0.762,0.714,2.686,-64.819,-128.296
0.099,-1.082,0.678,49.805,-43.457,-124.329
0.410,-1.150,0.557,58.167,21.545,-117.065
0.661,-0.938,0.596,24.902,15.747,-112.610
0.830,-0.893,0.744,36.987,15.808,-67.444
0.521,-0.692,0.937,32.043,1.404,-2.441
0.272,-0.523,0.978,1.160,-23.376,28.320
0.183,-0.461,0.874,-12.085,-6.531,40.466
0.201,-0.551,0.884,8.972,6.592,37.476
0.256,-0.715,0.825,25.757,8.423,16.113
0.326,-0.826,0.810,35.095,12.146,26.062
0.348,-0.986,0.764,25.879,18.250,44.067
0.263,-0.849,0.883,-20.508,0.488,66.101
0.288,-0.510,0.755,-39.368,50.842,77.026
0.290,-0.539,0.428,-49.988,76.660,84.717
0.328,-0.281,0.731,-28.320,35.217,81.787
0.384,-0.017,0.856,1.770,58.289,68.665
0.501,-0.080,0.589,-55.908,104.858,52.979
0.562,-0.184,0.442,-35.889,90.271,72.937
0.593,0.177,0.776,26.428,90.332,67.383
0.546,0.343,0.668,-14.221,125.244,38.025
0.810,0.428,0.295,-33.386,141.541,20.996
0.930,0.683,0.330,31.738,117.371,11.780
0.958,0.830,0.832,77.576,74.097,-15.503
1.040,0.549,1.099,29.724,21.545,-35.706
1.229,0.385,1.006,7.507,-4.150,-30.701
1.292,0.359,0.937,5.859,-10.010,-2.380
1.093,0.104,0.912,-24.170,-7.507,10.437
0.990,-0.114,0.614,-57.495,-0.305,8.240
0.901,-0.142,0.377,-52.551,-0.366,13.245
0.767,-0.043,0.311,-21.423,11.536,15.381
0.755,-0.016,0.359,11.414,24.048,1.099
0.778,-0.050,0.435,21.667,30.151,-1.648
0.835,-0.083,0.437,10.925,33.508,-0.732
0.882,-0.069,0.448,7.874,16.907,-2.991
0.875,-0.047,0.495,8.240,0.183,-2.075
0.864,-0.027,0.542,10.071,-2.808,-4.395
0.860,-0.013,0.559,5.737,0.244,-10.254
0.944,-0.083,0.548,3.113,-1.404,-16.663
0.931,-0.085,0.522,0.427,-2.502,-10.620
0.975,-0.121,0.518,4.150,0.183,-7.935
0.965,-0.124,0.493,1.770,1.709,-0.305
0.937,-0.113,0.495,-1.709,-3.967,5.859
0.878,-0.069,0.473,-1.587,-1.831,8.423
0.844,-0.064,0.476,1.770,-1.038,8.423
0.810,-0.045,0.479,1.343,-0.488,7.751
0.875,-0.084,0.485,1.709,-3.479,-1.892
0.887,-0.081,0.518,2.930,-4.150,2.258
0.875,-0.045,0.501,2.075,2.441,4.028
0.883,-0.042,0.498,0.671,-2.502,0.977
0.885,-0.048,0.493,0.793,-7.141,-0.122
0.895,-0.071,0.512,2.197,-5.371,-0.122
0.883,-0.053,0.512,0.427,-4.333,2.563
0.885,-0.044,0.511,2.136,-5.310,-1.160
0.891,-0.050,0.514,3.296,-9.277,0.122
0.886,-0.049,0.520,3.052,-12.329,1.953
0.885,-0.047,0.535,1.465,-8.362,3.784
0.885,-0.049,0.543,2.869,-0.549,7.202
0.868,-0.038,0.520,8.484,7.751,-0.183
0.882,-0.058,0.513,5.188,-4.150,5.981
0.878,-0.064,0.535,5.676,-0.854,7.141
0.874,-0.040,0.512,9.277,10.010,6.348
0.874,-0.035,0.507,11.353,3.113,0.122
0.886,-0.055,0.544,8.118,-8.972,3.357
0.881,-0.056,0.548,2.747,-8.484,7.568
0.884,-0.056,0.531,4.456,-2.319,5.920
0.871,-0.051,0.526,8.118,3.357,3.418
0.861,-0.045,0.510,6.592,1.526,4.517
0.862,-0.051,0.508,4.822,-4.395,3.418
0.863,-0.058,0.513,5.615,-3.479,1.953
0.873,-0.063,0.520,5.005,-3.723,2.197
0.878,-0.070,0.520,3.906,-3.723,1.709
0.875,-0.064,0.513,6.348,0.061,2.502
0.865,-0.056,0.517,7.324,1.221,1.831
0.872,-0.065,0.525,7.751,-0.244,0.305
0.886,-0.073,0.548,7.629,-1.038,-0.793
0.880,-0.066,0.558,5.676,-2.869,0.488
0.865,-0.047,0.564,1.953,-5.981,1.404
0.858,-0.038,0.566,1.282,-3.052,0.061
0.866,-0.043,0.565,2.319,0.610,-2.258
0.882,-0.061,0.560,0.549,1.221,-2.075
0.884,-0.064,0.547,-1.648,2.258,0.671
0.866,-0.049,0.515,-3.113,1.465,0.916
0.873,-0.060,0.527,-0.244,3.174,-0.732
0.879,-0.072,0.544,0.977,6.592,-1.648
0.872,-0.069,0.546,0.977,11.536,-1.160
0.862,-0.059,0.539,-1.526,5.737,-0.488
0.857,-0.063,0.537,-2.991,7.690,-1.404
0.863,-0.066,0.526,-4.272,13.062,-0.854
0.850,-0.055,0.503,-5.615,12.207,-3.906
0.867,-0.071,0.491,-7.568,9.644,-5.676
0.882,-0.084,0.465,-9.094,5.310,-6.042
0.895,-0.090,0.470,-7.263,4.395,-6.897
0.927,-0.112,0.487,-6.348,1.282,-9.155
0.953,-0.121,0.490,-6.226,6.653,-8.362
0.948,-0.117,0.498,-7.019,0.732,-5.188
0.928,-0.086,0.517,-8.240,1.648,-0.183
0.878,-0.061,0.505,-10.925,-2.869,-0.671
0.878,-0.068,0.511,-11.292,3.540,-2.563
0.870,-0.072,0.487,-10.864,4.883,-4.028
0.870,-0.078,0.492,-12.390,-2.747,-3.052
0.863,-0.063,0.494,-14.038,2.808,-2.380

0.873,-0.043,0.498,-14.099,-2.197,-12.390
0.903,-0.067,0.511,-10.864,-1.221,-10.376
0.929,-0.077,0.522,-11.414,-9.460,-7.568
0.926,-0.074,0.528,-10.376,-7.507,-5.249
0.909,-0.069,0.511,-2.441,0.793,-3.967
0.890,-0.070,0.512,3.784,7.629,-2.136
0.859,-0.043,0.516,0.610,-2.930,1.892
0.844,-0.034,0.519,-1.770,-4.395,0.977
0.845,-0.032,0.516,-1.160,-7.935,0.366
0.845,-0.046,0.518,-0.488,-3.906,-1.465
0.867,-0.053,0.512,3.357,7.080,-1.404
0.865,-0.041,0.505,8.179,8.728,-0.305
0.886,-0.048,0.504,12.939,17.639,-3.967
0.905,-0.054,0.503,15.015,16.907,-2.808
0.895,-0.057,0.515,13.855,6.592,1.465
0.884,-0.039,0.489,16.052,7.751,-0.488
0.894,-0.036,0.515,16.541,-6.165,-2.014
0.890,-0.047,0.519,11.780,-19.897,4.150
0.871,-0.056,0.527,10.925,-13.123,5.432
0.883,-0.073,0.541,14.160,-4.333,1.343
0.881,-0.080,0.510,18.799,-1.221,0.977
0.907,-0.091,0.500,23.743,-2.686,-5.249
0.935,-0.092,0.481,24.109,-2.991,2.991
0.970,-0.085,0.456,21.240,-19.714,3.845
1.066,-0.158,0.407,32.776,-15.808,4.639
1.045,-0.167,0.403,46.448,-21.362,15.930
0.995,-0.195,0.385,50.110,-37.598,28.259
0.895,-0.178,0.404,54.016,-51.941,38.696
0.793,-0.114,0.486,61.584,-68.970,39.429
0.779,-0.106,0.549,70.374,-71.960,40.527
0.766,-0.088,0.637,67.078,-76.416,46.204
0.700,-0.006,0.740,62.927,-97.961,39.063
0.670,0.108,1.061,54.321,-131.836,38.757
0.576,0.257,1.546,22.949,-135.498,25.208
0.545,0.481,1.522,-19.165,-115.173,25.269
0.482,0.696,1.359,-49.866,-101.135,8.179
0.362,0.782,1.220,-69.641,-123.535,-38.086
0.318,0.690,1.168,-73.486,-134.216,-73.364
0.284,0.543,1.175,-68.848,-94.482,-73.669
0.093,0.523,1.001,-83.557,-81.909,-75.562
-0.141,0.375,0.786,-101.135,-85.510,-114.807
-0.360,-0.081,0.549,-60.120,-81.604,-147.461
-0.568,-0.897,0.445,31.372,-36.438,-145.691
-0.596,-1.640,0.558,79.773,-0.610,-158.386
0.142,-1.913,0.773,63.293,-20.325,-206.970
1.075,-1.684,0.929,80.322,5.066,-207.764
1.461,-1.414,0.724,86.487,105.408,-70.679
0.327,-0.753,1.276,37.231,-56.885,75.195
-0.337,-0.239,1.160,-61.707,-102.661,83.862
-0.140,-0.226,0.805,-60.303,-61.951,35.828
-0.002,-0.356,0.778,25.330,-12.512,33.752
-0.001,-0.614,1.109,50.598,-59.326,36.255
-0.132,-0.799,1.330,28.320,-67.444,54.810
-0.099,-0.664,1.088,-15.015,4.211,78.674
-0.095,-0.655,0.696,-54.504,36.133,89.233
-0.202,-0.589,0.690,-67.139,-0.977,95.947
-0.184,-0.260,0.819,-20.386,26.489,81.909
-0.042,-0.246,0.709,-33.508,54.016,72.083
-0.003,-0.192,0.634,-52.917,44.189,98.328
0.140,0.026,0.681,4.150,61.340,88.745
0.170,0.198,0.809,14.160,86.548,61.035
0.193,0.255,0.793,-6.592,100.647,43.213
0.473,0.536,0.714,50.537,122.620,29.602
0.518,0.594,0.765,107.727,127.258,27.527
0.400,0.488,1.073,75.928,67.017,-3.601
0.531,0.322,1.187,42.480,66.040,-40.710
0.848,0.176,0.953,49.988,83.191,-37.170
0.838,0.027,0.838,82.458,85.022,-13.855
0.898,0.084,1.050,97.595,27.649,-22.278
0.828,-0.033,1.294,69.580,-9.705,-29.419
0.691,-0.274,1.287,1.770,-28.381,-31.189
0.664,-0.410,1.032,-62.866,-22.949,-40.222
0.661,-0.432,0.826,-90.576,-21.545,-33.813
0.595,-0.402,0.749,-68.787,-13.916,-16.418
0.526,-0.326,0.807,-33.325,12.024,0.916
0.434,-0.281,0.858,-12.634,32.593,3.357
0.477,-0.263,0.840,-20.752,79.041,-6.531
0.539,-0.244,0.818,-30.396,71.167,-18.433
0.604,-0.219,0.798,-35.095,41.443,-22.278
0.633,-0.203,0.775,-36.865,16.541,-34.302
0.679,-0.194,0.804,-36.987,11.414,-30.518
0.689,-0.187,0.814,-40.771,9.888,-30.701
0.727,-0.201,0.801,-45.227,8.911,-32.043
0.734,-0.188,0.784,-44.800,6.531,-27.832
0.697,-0.172,0.776,-40.955,4.700,-20.996
0.663,-0.159,0.753,-39.124,9.460,-18.494
0.641,-0.147,0.729,-36.682,16.174,-14.709
