aX,aY,aZ,gX,gY,gZ
0.766,0.055,0.628,15.015,-6.042,4.456
0.798,0.102,0.606,15.991,-10.071,8.057
0.760,0.067,0.639,17.883,-11.719,-3.967
0.761,0.066,0.637,6.165,-4.456,5.005
0.773,0.093,0.638,8.545,-6.714,11.353
0.798,0.076,0.658,7.141,-15.259,3.845
0.773,0.073,0.658,2.197,-8.423,-3.113
0.762,0.056,0.669,-3.113,-3.601,-3.540
0.735,0.042,0.680,-2.319,5.005,4.639
0.775,0.080,0.640,2.930,1.343,5.615
0.768,0.082,0.635,2.686,-6.714,-2.991
0.752,0.060,0.637,-1.953,-3.052,-0.732
0.758,0.063,0.662,-3.296,-1.709,5.798
0.768,0.088,0.671,6.897,-0.549,7.507
0.799,0.121,0.654,10.376,-6.287,-3.662
0.742,0.065,0.646,1.892,-2.258,-5.737
0.746,0.059,0.653,-5.798,3.357,0.854
0.756,0.073,0.665,1.648,-0.977,0.244
0.756,0.069,0.664,1.587,-3.296,-1.526
0.742,0.042,0.663,0.000,-5.676,-1.038
0.724,0.044,0.646,-3.662,-2.686,3.235
0.756,0.069,0.676,-1.465,-1.831,5.005
0.745,0.066,0.666,-0.183,-3.784,0.854
0.757,0.071,0.677,0.366,-1.831,2.808
0.750,0.074,0.664,-0.122,-1.282,3.601
0.765,0.103,0.670,-0.977,-0.977,2.991
0.760,0.102,0.667,-0.427,0.061,-1.221
0.758,0.094,0.672,-0.916,-0.183,-0.977
0.757,0.093,0.671,-2.686,-0.854,-1.343
0.751,0.088,0.677,-3.235,1.038,-3.296
0.754,0.070,0.672,-1.099,2.014,-4.395
0.744,0.068,0.656,-1.038,1.404,-3.784
0.747,0.067,0.665,-0.916,-1.282,-2.380
0.744,0.072,0.675,0.244,-2.319,-2.625
0.749,0.072,0.668,-0.305,1.709,-2.319
0.736,0.058,0.663,-0.366,0.732,-1.099
0.750,0.076,0.670,-0.305,2.258,0.610
0.758,0.078,0.663,0.122,1.160,-1.709
0.751,0.073,0.669,-0.305,0.610,-1.465
0.752,0.073,0.672,-0.366,-0.061,-0.671
0.746,0.064,0.663,-0.122,0.366,-0.610
0.748,0.072,0.669,0.549,-0.427,0.122
0.762,0.082,0.667,-0.977,0.366,-0.916
0.753,0.077,0.653,-1.587,1.953,-1.526
0.757,0.068,0.655,0.244,-0.427,-2.441
0.741,0.051,0.659,0.000,-1.099,-1.953
0.749,0.067,0.665,0.732,-1.160,-0.122
0.747,0.069,0.664,-0.305,0.854,0.122
0.751,0.064,0.656,-1.404,1.892,0.488
0.750,0.064,0.655,0.122,-1.160,0.549
0.754,0.083,0.674,0.061,-0.977,1.526
0.755,0.079,0.677,-0.366,-0.671,-0.854
0.752,0.070,0.673,-1.343,0.732,-2.136
0.740,0.063,0.665,-1.770,0.793,-1.221
0.750,0.068,0.662,-0.488,0.549,1.892
0.753,0.071,0.665,0.732,-0.427,0.122
0.752,0.068,0.666,0.305,0.610,-0.366
0.751,0.076,0.669,0.244,0.610,0.916
0.759,0.087,0.668,0.977,1.465,1.709
0.766,0.091,0.671,-0.488,1.709,-1.221
0.751,0.074,0.672,-1.282,3.113,-2.258
0.753,0.073,0.663,-0.854,3.052,-0.061
0.758,0.076,0.652,-1.221,2.014,-1.343
0.751,0.064,0.653,-0.610,1.526,-2.625
0.758,0.068,0.653,-0.305,1.343,-0.671
0.749,0.061,0.647,-0.427,1.038,0.366
0.751,0.061,0.652,0.793,0.549,1.526
0.763,0.081,0.656,1.099,0.610,1.038
0.761,0.070,0.661,0.122,-1.709,-0.916
0.755,0.077,0.669,1.953,-0.977,0.488
0.762,0.079,0.659,-0.549,1.099,-0.183
0.756,0.073,0.664,1.038,0.610,-1.038
0.760,0.071,0.660,-0.732,0.916,-0.732
0.752,0.069,0.650,-0.916,-0.549,0.061
0.762,0.067,0.647,-0.854,1.404,0.000
0.761,0.075,0.651,-0.610,-1.465,-1.648
0.752,0.070,0.657,0.610,-0.854,-1.709
0.755,0.071,0.668,0.305,-0.366,0.000
0.758,0.071,0.667,0.366,0.549,0.183
0.759,0.075,0.653,-0.366,2.258,0.549
0.757,0.063,0.655,0.732,-0.549,-1.038
0.756,0.071,0.646,-0.854,0.366,0.916
0.758,0.070,0.648,-0.244,-0.366,0.488
0.756,0.074,0.663,0.305,-1.953,0.305
0.759,0.067,0.672,0.671,-1.404,0.000
0.758,0.070,0.666,1.160,-2.930,-1.038
0.750,0.070,0.663,0.366,-1.465,-0.427
0.755,0.072,0.656,0.305,-0.671,-0.793
0.754,0.070,0.652,0.488,-1.160,0.122
0.758,0.078,0.657,-0.061,0.305,0.793
0.759,0.073,0.655,0.122,-0.183,-0.916
0.753,0.069,0.664,0.488,-2.075,-0.916
0.752,0.071,0.672,-0.488,-0.610,0.244
0.757,0.074,0.674,-0.061,1.343,-0.244
0.756,0.075,0.669,0.427,0.793,-1.038
0.753,0.068,0.659,0.244,0.488,-0.244
0.754,0.068,0.656,0.122,-1.038,-1.221
0.752,0.064,0.663,0.305,0.061,-0.854
0.752,0.064,0.661,-0.122,-0.671,-0.732
0.752,0.065,0.666,0.549,-1.648,-0.854
0.748,0.064,0.658,0.549,-0.488,-0.122
0.754,0.069,0.666,0.122,-0.244,0.732
0.759,0.071,0.662,-0.061,1.160,-0.061
0.757,0.077,0.658,-0.183,0.793,0.061
0.754,0.071,0.661,-0.610,0.427,-0.610
0.760,0.076,0.668,0.122,0.122,-0.610
0.751,0.064,0.662,0.061,0.122,-1.648
0.745,0.052,0.659,0.366,0.610,-0.549
0.751,0.057,0.654,-0.366,0.793,1.099
0.756,0.068,0.658,0.061,-0.183,0.916
0.756,0.073,0.664,0.488,-0.488,0.549
0.758,0.078,0.661,0.488,0.122,0.854
0.758,0.077,0.668,-0.549,0.244,0.366
0.757,0.072,0.671,0.183,0.061,-0.183
0.755,0.071,0.669,-0.061,1.221,-1.343
0.750,0.060,0.653,-0.488,1.587,-0.366
0.752,0.064,0.647,0.061,-0.366,0.854
0.756,0.068,0.663,0.366,-0.854,0.244
0.756,0.071,0.676,0.061,0.244,0.122
0.756,0.070,0.663,0.000,1.099,-0.061
0.754,0.071,0.656,0.244,0.732,0.427
0.759,0.074,0.661,0.305,0.549,-0.366
0.757,0.066,0.654,-0.244,0.671,-0.793
0.755,0.067,0.656,0.183,-0.061,0.488
0.757,0.073,0.658,-0.366,0.916,0.122

0.755,0.062,0.665,0.061,-0.244,0.061
0.761,0.071,0.661,0.122,0.244,0.671
0.758,0.070,0.658,0.366,0.244,-0.122
0.758,0.072,0.648,-0.427,0.854,0.305
0.761,0.072,0.657,0.061,-0.488,0.000
0.756,0.066,0.663,0.244,-0.427,-0.244
0.753,0.063,0.661,0.000,-0.061,-0.061
0.753,0.064,0.655,0.000,0.488,0.427
0.758,0.069,0.657,0.183,0.305,0.732
0.762,0.072,0.660,0.244,-0.366,-0.183
0.757,0.072,0.658,0.427,0.000,0.305
0.758,0.071,0.660,0.183,0.061,0.610
0.758,0.074,0.658,0.061,0.183,0.000
0.761,0.072,0.663,-0.061,0.000,-0.183
0.758,0.074,0.654,0.000,0.610,-0.244
0.757,0.066,0.657,-0.061,0.305,-0.671
0.755,0.065,0.658,0.488,-0.732,-0.305
0.755,0.070,0.657,-0.061,0.549,0.244
0.760,0.071,0.659,0.244,0.061,0.122
0.760,0.073,0.658,0.244,0.244,-0.183
0.760,0.070,0.660,-0.122,0.305,-0.305
0.757,0.068,0.663,0.305,0.000,-0.122
0.757,0.065,0.656,-0.305,0.610,-0.244
0.757,0.065,0.656,0.793,-0.061,0.183
0.758,0.068,0.653,0.671,-0.122,0.244
0.757,0.066,0.665,0.916,-0.671,0.366
0.764,0.074,0.660,0.061,0.854,0.366
0.759,0.072,0.657,0.366,0.000,-0.183
0.760,0.073,0.658,0.366,0.244,0.061
0.759,0.070,0.656,0.244,0.305,-0.305
0.756,0.068,0.657,0.061,0.305,-0.427
0.756,0.060,0.654,0.366,0.305,-0.366
0.760,0.069,0.655,0.244,0.183,0.488
0.761,0.070,0.658,0.488,-0.671,-0.305
0.758,0.071,0.660,0.488,-0.122,-0.305
0.756,0.067,0.660,0.000,0.122,-0.244
0.760,0.074,0.659,0.305,0.244,0.488
0.761,0.068,0.658,0.183,0.427,-0.793
0.756,0.069,0.654,0.671,-0.427,-0.305
0.759,0.071,0.654,-0.427,0.610,-0.183
0.755,0.059,0.656,0.305,-0.244,-0.610
0.757,0.064,0.660,-0.366,0.549,0.427
0.758,0.063,0.656,0.916,-0.427,-0.183
0.759,0.068,0.655,0.061,-0.122,0.244
0.759,0.067,0.655,0.305,-0.488,-0.183
0.758,0.071,0.657,0.183,-0.183,0.488
0.761,0.071,0.662,0.244,-0.122,-0.305
0.756,0.068,0.663,-0.061,0.488,0.305
0.761,0.069,0.662,0.305,0.427,-0.427
0.756,0.063,0.649,-0.183,0.366,-0.305
0.755,0.063,0.652,0.305,-0.549,0.427
0.759,0.067,0.657,0.183,-0.061,0.305
0.759,0.068,0.665,-0.061,0.122,0.000
0.759,0.071,0.666,0.549,-0.061,0.122
0.763,0.072,0.658,-0.427,1.221,0.061
0.756,0.067,0.652,0.854,0.061,-0.549
0.759,0.066,0.651,-0.671,0.488,-0.122
0.760,0.071,0.656,0.366,-0.549,-0.122
0.758,0.065,0.658,-0.610,0.549,-0.427
0.757,0.066,0.658,0.305,0.427,0.000
0.757,0.065,0.660,-0.427,-0.183,0.122
0.758,0.065,0.655,0.793,-0.488,-0.061
0.758,0.070,0.657,-0.061,0.000,0.427
0.762,0.076,0.659,0.183,0.244,0.244
0.761,0.069,0.654,-0.061,0.305,-0.305
0.759,0.068,0.658,0.305,-0.183,-0.366
0.760,0.067,0.658,0.122,-0.122,-0.732
0.757,0.064,0.664,-0.122,0.244,-0.183
0.760,0.066,0.658,0.244,0.366,-0.488
0.757,0.065,0.653,0.427,-0.061,-0.305
0.761,0.068,0.655,-0.122,0.000,0.000
0.758,0.065,0.661,0.244,-0.183,-1.038
0.757,0.067,0.661,0.000,0.305,-0.122
0.759,0.067,0.656,0.061,0.000,-0.427
0.760,0.064,0.657,0.183,0.061,-0.671
0.756,0.060,0.652,0.244,0.366,-0.061
0.760,0.064,0.653,0.122,0.061,0.366
0.758,0.064,0.655,0.488,-0.549,-0.244
0.759,0.067,0.660,0.000,0.061,0.244
0.761,0.072,0.656,0.305,0.183,0.366
0.761,0.069,0.661,-0.244,0.305,-0.549
0.761,0.068,0.661,0.122,0.122,-0.427
0.755,0.062,0.648,-0.427,0.610,-0.610
0.757,0.062,0.655,-0.061,-0.244,-0.122
0.759,0.061,0.659,0.061,-0.183,-0.610
0.755,0.060,0.657,0.305,-0.183,-0.061
0.760,0.069,0.657,-0.244,0.305,0.732
0.761,0.069,0.658,0.061,0.122,-0.122
0.759,0.067,0.659,0.244,0.000,0.000
0.761,0.070,0.659,0.000,0.244,-0.061
0.757,0.063,0.655,0.183,0.183,-0.244
0.760,0.068,0.650,0.549,0.000,0.122
0.759,0.065,0.658,-0.122,0.122,-0.488
0.760,0.067,0.660,-0.183,0.305,-0.061
0.760,0.065,0.656,0.000,0.061,-0.549
0.757,0.061,0.657,0.122,0.244,-0.061
0.759,0.066,0.655,0.183,0.427,-0.305
0.758,0.062,0.658,0.305,0.000,-0.244
0.762,0.070,0.657,0.244,0.244,0.122
0.758,0.062,0.655,-0.183,0.183,-0.244
0.757,0.066,0.656,0.732,-0.305,0.305
0.762,0.065,0.659,0.061,0.366,-0.244
0.756,0.064,0.652,0.122,0.427,0.244
0.763,0.068,0.658,0.183,-0.183,0.000
0.759,0.066,0.656,0.854,-0.366,-0.427
0.758,0.064,0.660,-0.305,0.061,0.122
0.765,0.069,0.658,0.000,0.305,-0.122
0.761,0.071,0.657,-0.305,0.671,-0.610
0.757,0.064,0.656,0.305,0.244,-0.793
0.757,0.061,0.651,-0.366,0.793,-0.549
0.760,0.062,0.650,0.244,0.305,-0.305
0.759,0.061,0.651,-0.183,-0.061,-0.427
0.756,0.060,0.652,0.000,-0.305,0.000
0.760,0.064,0.658,0.122,-0.244,0.244
0.759,0.065,0.667,0.183,-0.305,0.244
0.759,0.065,0.660,0.366,0.122,0.244
0.761,0.069,0.658,0.000,0.977,0.549
0.764,0.071,0.646,0.000,0.916,0.305
0.759,0.062,0.645,0.427,-0.427,-0.488
0.759,0.062,0.658,0.061,0.061,-0.061
0.759,0.063,0.660,-0.122,-0.061,0.183
0.759,0.061,0.656,0.244,0.183,0.000
0.758,0.059,0.650,0.305,-0.183,0.793
0.764,0.073,0.655,0.305,-0.305,0.549
0.765,0.071,0.658,0.000,0.061,-0.549

0.757,0.067,0.662,-0.061,-0.122,-0.244
0.758,0.062,0.661,0.000,0.183,0.061
0.761,0.068,0.662,0.122,0.488,0.244
0.759,0.064,0.656,0.244,0.549,-0.244
0.758,0.061,0.651,0.000,0.427,-0.305
0.757,0.062,0.655,-0.122,0.244,0.183
0.757,0.060,0.656,0.061,0.244,0.244
0.756,0.060,0.654,0.366,-0.122,0.488
0.760,0.068,0.661,0.122,0.122,0.732
0.761,0.070,0.658,0.000,0.122,0.610
0.761,0.070,0.658,0.183,0.061,0.244
0.765,0.073,0.657,0.061,0.732,0.000
0.757,0.057,0.645,0.122,0.122,-0.610
0.754,0.057,0.654,0.000,-0.488,0.183
0.759,0.065,0.660,0.000,-0.305,0.793
0.758,0.064,0.657,0.061,0.183,0.488
0.754,0.058,0.659,0.854,-0.305,0.427
0.762,0.070,0.655,0.244,-0.305,1.648
0.767,0.077,0.660,0.610,-0.305,0.671
0.764,0.075,0.663,0.366,0.366,-0.488
0.760,0.074,0.659,-0.244,0.671,0.122
0.762,0.072,0.657,-0.061,0.427,-0.610
0.760,0.067,0.655,0.122,0.854,-0.610
0.756,0.059,0.656,-0.122,0.793,-0.793
0.754,0.056,0.649,0.061,0.183,0.183
0.760,0.065,0.653,0.305,-0.122,0.610
0.761,0.069,0.660,0.305,0.061,-0.122
0.762,0.070,0.661,0.000,0.671,0.305
0.767,0.075,0.659,0.244,0.610,-0.488
0.761,0.069,0.650,0.122,0.732,-0.671
0.760,0.065,0.646,-0.366,0.488,-0.488
0.756,0.058,0.651,-0.122,-0.122,-0.671
0.759,0.062,0.659,0.244,-0.122,0.000
0.756,0.062,0.658,0.000,0.061,-0.122
0.760,0.064,0.659,0.000,0.061,0.732
0.763,0.068,0.658,0.427,0.061,0.610
0.762,0.069,0.654,0.122,0.305,0.000
0.763,0.071,0.656,0.244,0.122,0.122
0.765,0.074,0.657,-0.122,0.244,-0.244
0.760,0.064,0.655,0.183,0.061,-1.038
0.757,0.061,0.654,0.061,0.366,-0.549
0.758,0.058,0.655,-0.061,0.305,0.000
0.762,0.064,0.654,-0.061,0.305,0.244
0.762,0.066,0.652,0.244,-0.061,0.183
0.762,0.068,0.655,0.366,-0.366,0.122
0.761,0.067,0.658,0.000,0.061,0.061
0.763,0.070,0.657,0.061,0.122,-0.183
0.761,0.066,0.657,-0.061,0.244,-0.610
0.758,0.064,0.657,0.122,0.244,0.366
0.762,0.065,0.655,0.549,0.000,-0.244
0.759,0.062,0.656,0.000,0.427,-0.122
0.758,0.065,0.646,-0.366,0.427,0.366
0.764,0.065,0.652,0.183,-0.488,0.000
0.760,0.067,0.651,-0.061,-0.549,-0.122
0.761,0.066,0.663,0.061,-0.122,-0.122
0.764,0.071,0.664,0.427,0.427,0.000
0.764,0.071,0.656,0.122,0.549,-0.366
0.761,0.065,0.648,-0.061,0.549,-0.488
0.762,0.066,0.651,-0.183,0.305,-0.366
0.760,0.061,0.651,-0.122,0.061,-0.916
0.759,0.062,0.656,-0.305,0.366,-0.061
0.760,0.062,0.658,0.061,-0.183,-0.122
0.760,0.063,0.657,0.244,0.000,0.183
0.763,0.069,0.657,0.183,0.366,0.122
0.762,0.066,0.652,-0.183,0.610,-0.244
0.763,0.070,0.648,0.427,-0.183,0.427
0.761,0.066,0.657,-0.183,0.000,-0.244
0.761,0.064,0.652,-0.061,0.366,-0.671
0.759,0.060,0.656,0.183,-0.183,0.000
0.759,0.061,0.659,0.305,-0.244,0.244
0.763,0.066,0.655,0.122,0.610,0.488
0.760,0.065,0.652,0.000,0.610,0.305
0.765,0.072,0.652,0.488,-0.488,0.244
0.765,0.073,0.649,0.122,-0.061,-0.427
0.761,0.066,0.655,-0.061,0.000,-0.610
0.762,0.064,0.661,0.122,0.366,-0.305
0.759,0.061,0.654,-0.244,0.732,-0.122
0.760,0.061,0.650,0.122,0.061,0.244
0.761,0.061,0.650,0.305,-0.305,0.000
0.761,0.065,0.650,0.183,-0.122,0.549
0.761,0.067,0.651,0.183,-0.549,0.549
0.765,0.070,0.658,0.427,-0.366,0.000
0.765,0.074,0.661,0.061,-0.122,0.061
0.762,0.068,0.662,-0.244,0.427,-0.061
0.765,0.069,0.651,0.183,0.854,-0.427
0.757,0.059,0.644,0.061,0.244,-0.793
0.760,0.060,0.648,-0.366,0.305,0.061
0.759,0.061,0.657,0.183,-0.671,-0.183
0.760,0.062,0.660,0.183,-0.183,0.244
0.761,0.067,0.653,0.610,-0.061,0.366
0.762,0.068,0.656,0.122,0.183,0.671
0.765,0.072,0.647,0.305,0.305,0.488
0.760,0.065,0.651,0.122,-0.183,-0.061
0.764,0.070,0.656,0.305,-0.183,0.305
0.760,0.064,0.654,0.244,-0.366,-0.549
0.760,0.066,0.657,0.366,-0.305,0.000
0.761,0.065,0.653,0.183,-0.061,0.061
0.758,0.060,0.649,0.244,-0.183,0.122
0.758,0.062,0.651,0.183,-0.122,0.671
0.762,0.067,0.655,0.244,-0.366,0.122
0.762,0.067,0.655,0.183,-0.061,0.610
0.763,0.072,0.656,0.488,-0.671,0.183
0.762,0.068,0.654,0.122,-0.122,-0.305
0.761,0.068,0.653,-0.061,-0.244,-0.122
0.761,0.067,0.657,-0.366,-0.061,-0.305
0.760,0.064,0.658,0.122,-0.122,-0.366
0.760,0.061,0.656,0.488,-0.366,0.122
0.760,0.064,0.652,0.183,0.366,0.000
0.756,0.060,0.648,-0.061,-0.549,0.549
0.761,0.069,0.654,0.305,-1.038,0.916
0.759,0.064,0.661,0.183,-0.610,0.305
0.762,0.071,0.661,0.305,-0.427,0.793
0.765,0.075,0.656,-0.183,0.000,0.366
0.762,0.070,0.655,0.366,0.122,-0.610
0.756,0.066,0.652,-0.183,0.061,-0.305
0.761,0.066,0.655,-0.183,0.000,0.000
0.757,0.062,0.662,0.305,-0.488,-0.305
0.756,0.064,0.660,0.122,-0.183,0.000
0.757,0.065,0.657,0.061,0.061,0.183
0.758,0.065,0.661,0.610,-0.244,0.488
0.760,0.073,0.660,0.305,0.366,0.366
0.762,0.072,0.661,0.183,0.427,-0.061
0.760,0.068,0.658,0.427,0.427,-0.549
0.762,0.072,0.649,-0.366,0.549,-0.122
0.757,0.061,0.651,0.122,-0.061,-0.671

0.760,0.067,0.659,0.244,0.122,0.000
0.762,0.068,0.656,0.366,0.366,0.000
0.762,0.068,0.650,0.183,0.488,-0.244
0.759,0.064,0.647,0.061,-0.183,0.061
0.762,0.065,0.654,0.488,-0.244,0.000
0.760,0.065,0.657,0.122,-0.427,-0.244
0.761,0.068,0.661,0.305,0.061,0.366
0.765,0.073,0.660,0.305,0.427,0.305
0.762,0.071,0.655,0.183,0.305,-0.183
0.762,0.068,0.647,0.183,0.610,-0.549
0.761,0.064,0.648,-0.244,0.244,-0.488
0.759,0.062,0.653,0.122,-0.244,-0.305
0.757,0.058,0.659,0.244,0.061,0.000
0.762,0.067,0.652,-0.061,0.244,0.610
0.761,0.068,0.651,0.000,0.000,0.305
0.762,0.066,0.655,0.488,-0.244,-0.061
0.762,0.070,0.656,0.183,0.061,0.305
0.763,0.071,0.652,0.244,0.183,-0.061
0.764,0.070,0.648,-0.122,0.183,-0.305
0.759,0.065,0.652,-0.122,-0.488,-0.366
0.760,0.065,0.661,-0.122,-0.305,-0.244
0.757,0.059,0.660,-0.244,0.122,-0.183
0.761,0.062,0.656,0.366,0.122,0.488
0.764,0.069,0.652,0.244,0.244,0.244
0.760,0.068,0.648,0.122,0.000,-0.122
0.764,0.071,0.654,0.061,-0.305,0.061
0.763,0.070,0.660,-0.122,0.244,-0.244
0.758,0.066,0.658,0.122,0.305,-0.366
0.760,0.064,0.660,-0.061,0.488,0.000
0.763,0.068,0.654,0.122,0.427,-0.183
0.760,0.066,0.645,0.122,0.305,-0.122
0.760,0.060,0.650,0.122,0.000,0.244
0.764,0.066,0.650,0.061,-0.061,0.427
0.762,0.072,0.653,0.610,-0.732,0.122
0.763,0.070,0.660,0.000,-0.305,-0.305
0.764,0.070,0.661,0.122,0.183,-0.122
0.760,0.070,0.654,-0.122,0.366,-0.366
0.764,0.068,0.649,-0.122,0.549,-0.427
0.762,0.065,0.650,-0.061,0.244,-1.099
0.755,0.057,0.650,0.061,-0.305,-0.488
0.757,0.058,0.658,-0.305,-0.366,0.488
0.761,0.064,0.661,0.244,-0.061,0.610
0.764,0.069,0.656,0.244,0.244,0.549
0.765,0.074,0.650,0.366,0.000,0.183
0.765,0.073,0.651,-0.061,0.061,0.244
0.764,0.072,0.657,-0.305,0.183,-0.793
0.760,0.063,0.657,0.000,-0.122,-0.793
0.754,0.058,0.656,0.061,0.061,-0.488
0.757,0.060,0.657,-0.183,0.427,0.488
0.761,0.066,0.651,0.122,0.488,0.793
0.764,0.069,0.651,0.122,0.183,0.183
0.762,0.068,0.651,0.366,-0.244,0.061
0.765,0.071,0.655,0.061,-0.122,0.000
0.763,0.071,0.656,0.305,-0.305,-0.427
0.761,0.068,0.661,-0.366,0.183,-0.061
0.762,0.065,0.655,0.305,0.366,-0.488
0.758,0.061,0.653,0.488,-0.305,0.061
0.761,0.062,0.652,0.366,0.061,0.427
0.758,0.062,0.647,0.366,-0.183,0.366
0.761,0.067,0.654,0.366,-0.977,1.221
0.766,0.075,0.660,0.305,-0.427,0.183
0.760,0.071,0.660,0.427,-0.305,0.000
0.763,0.072,0.661,0.183,0.122,0.183
0.765,0.073,0.652,0.183,0.671,-0.488
0.761,0.067,0.649,-0.061,0.305,-0.610
0.758,0.061,0.647,0.061,-0.183,-0.671
0.758,0.063,0.655,0.000,-0.427,0.183
0.763,0.068,0.661,0.122,-0.244,-0.122
0.757,0.063,0.656,0.000,-0.122,-0.183
0.761,0.068,0.651,0.366,-0.427,0.427
0.761,0.067,0.651,0.183,-0.183,0.061
0.762,0.070,0.659,0.061,-0.183,0.000
0.759,0.067,0.657,0.061,-0.366,-0.061
0.759,0.067,0.661,0.732,-0.549,0.183
0.762,0.068,0.654,0.061,0.366,-0.183
0.758,0.064,0.648,0.061,0.366,-0.183
0.757,0.063,0.653,0.305,-0.244,0.488
0.758,0.064,0.658,0.488,-0.549,0.244
0.760,0.066,0.659,0.122,-0.122,0.183
0.760,0.070,0.657,0.427,-0.305,0.305
0.762,0.073,0.656,0.732,-0.122,-0.244
0.764,0.071,0.658,-0.244,0.305,-0.610
0.759,0.066,0.655,-0.183,0.061,-0.244
0.758,0.065,0.661,-0.244,0.244,-0.305
0.759,0.065,0.659,0.000,0.305,-0.488
0.755,0.058,0.657,0.366,0.305,-0.244
0.755,0.059,0.652,-0.183,0.305,0.732
0.763,0.070,0.653,-0.061,0.305,0.732
0.765,0.073,0.657,0.244,-0.061,0.061
0.763,0.073,0.660,-0.122,0.122,-0.305
0.761,0.069,0.659,0.122,0.427,-0.366
0.759,0.068,0.650,-0.610,1.038,-0.244
0.759,0.065,0.652,-0.244,0.549,-0.427
0.758,0.059,0.656,0.122,-0.183,-0.610
0.758,0.058,0.655,-0.061,-0.549,0.366
0.759,0.066,0.653,0.488,-0.732,1.160
0.761,0.068,0.654,-0.061,-0.427,0.977
0.761,0.069,0.658,0.061,-0.122,0.916
0.762,0.074,0.660,-0.183,1.282,0.427
0.763,0.073,0.663,-0.122,0.977,-0.183
0.763,0.072,0.653,0.061,0.916,-0.366
0.759,0.068,0.649,-0.244,0.671,-0.305
0.758,0.062,0.654,0.122,0.427,-0.549
0.759,0.063,0.653,0.061,0.488,-0.122
0.758,0.064,0.652,0.000,0.244,0.183
0.763,0.068,0.654,-0.061,0.671,0.244
0.766,0.073,0.649,0.183,0.244,0.061
0.763,0.071,0.653,-0.061,-0.244,-0.427
0.761,0.066,0.658,-0.305,0.366,-0.366
0.760,0.066,0.659,-0.061,0.427,0.183
0.760,0.066,0.658,0.305,0.732,0.061
0.763,0.066,0.648,0.122,0.793,0.183
0.763,0.071,0.642,0.061,0.061,0.183
0.762,0.066,0.652,0.000,-0.305,0.061
0.765,0.073,0.654,0.366,-0.183,-0.183
0.762,0.069,0.660,-0.244,0.122,-0.366
0.762,0.069,0.659,0.244,0.244,0.061
0.763,0.069,0.655,0.061,0.671,-0.061
0.762,0.069,0.651,-0.244,0.793,-0.244
0.763,0.068,0.646,-0.061,0.183,-0.427
0.761,0.064,0.648,-0.183,0.000,-0.244
0.760,0.065,0.652,-0.122,-0.061,-0.305
0.760,0.065,0.659,0.183,-0.244,0.000
0.763,0.071,0.657,0.000,0.244,0.488
0.761,0.069,0.656,0.427,0.122,0.061

0.761,0.062,0.651,0.061,0.610,0.061
0.764,0.068,0.644,0.549,0.366,0.488
0.766,0.071,0.647,0.427,-0.122,-0.122
0.763,0.068,0.648,0.244,-0.183,-0.122
0.760,0.062,0.651,-0.122,-0.366,0.061
0.762,0.064,0.653,0.244,-0.488,0.244
0.759,0.062,0.653,0.305,-0.244,0.305
0.760,0.064,0.655,0.488,-0.183,0.916
0.765,0.070,0.648,0.427,-0.305,0.977
0.761,0.067,0.648,0.427,-0.732,1.038
0.765,0.074,0.657,0.610,-0.610,1.038
0.764,0.077,0.661,0.000,0.122,0.427
0.762,0.068,0.661,0.793,-0.122,-0.122
0.764,0.072,0.648,0.427,0.305,0.549
0.767,0.072,0.640,-0.122,0.488,0.122
0.760,0.066,0.639,0.122,-0.549,-0.427
0.760,0.063,0.656,0.000,-1.343,0.061
0.759,0.067,0.661,0.244,-0.916,0.427
0.758,0.065,0.661,0.366,-0.854,0.183
0.758,0.066,0.654,0.305,-0.305,0.732
0.763,0.069,0.650,0.366,-0.549,0.977
0.760,0.072,0.653,0.488,-0.793,0.549
0.763,0.076,0.660,-0.061,-0.305,0.549
0.763,0.074,0.663,0.549,-0.488,0.122
0.760,0.071,0.659,0.122,0.000,-0.122
0.758,0.068,0.652,0.122,0.061,-0.122
0.754,0.064,0.652,0.000,0.122,0.305
0.761,0.071,0.659,0.427,-0.305,0.671
0.764,0.073,0.655,-0.122,0.305,0.183
0.758,0.068,0.647,0.610,-0.549,0.366
0.760,0.073,0.653,0.000,-0.610,0.366
0.761,0.069,0.658,0.061,-0.366,-0.549
0.754,0.063,0.659,0.183,-0.366,0.366
0.757,0.069,0.668,0.061,0.000,1.221
0.759,0.073,0.657,0.671,0.244,0.793
0.759,0.070,0.650,0.000,0.183,0.854
0.762,0.077,0.651,0.122,-0.366,0.854
0.762,0.075,0.660,0.549,-0.610,0.244
0.759,0.072,0.662,0.122,0.000,0.305
0.761,0.073,0.656,-0.061,0.488,0.244
0.760,0.074,0.655,0.366,0.244,0.183
0.762,0.077,0.655,-0.305,0.305,0.000
0.760,0.075,0.654,0.122,0.244,-0.305
0.758,0.069,0.659,-0.305,0.061,-0.366
0.760,0.070,0.660,0.122,0.549,-0.305
0.753,0.064,0.649,0.000,0.549,-0.610
0.757,0.069,0.654,0.427,-0.061,0.610
0.760,0.073,0.656,0.061,0.244,0.671
0.762,0.077,0.656,-0.122,0.305,0.488
0.763,0.077,0.654,0.366,-0.183,-0.183
0.761,0.078,0.655,-0.366,0.122,-0.122
0.758,0.070,0.655,-0.061,0.000,-0.549
0.759,0.072,0.658,-0.183,0.366,-0.183
0.760,0.074,0.659,-0.122,0.305,-0.061
0.759,0.069,0.656,0.122,0.305,-0.488
0.759,0.070,0.653,0.244,0.183,-0.305
0.760,0.073,0.651,-0.305,0.488,-0.305
0.761,0.072,0.656,-0.061,0.305,-0.122
0.760,0.073,0.659,-0.122,0.305,0.061
0.760,0.072,0.658,0.183,0.305,-0.183
0.763,0.075,0.659,0.183,0.732,-0.183
0.759,0.072,0.652,-0.244,0.977,-0.488
0.759,0.067,0.645,0.000,0.244,-0.122
0.761,0.066,0.647,0.427,-0.122,0.000
0.760,0.070,0.655,-0.122,0.305,0.000
0.762,0.076,0.659,0.122,0.122,0.549
0.765,0.077,0.654,0.000,0.183,0.244
0.760,0.073,0.646,0.244,0.000,-0.427
0.759,0.072,0.656,-0.061,-0.183,-0.122
0.761,0.070,0.655,-0.183,0.488,-0.244
0.760,0.069,0.652,0.061,0.244,-0.061
0.761,0.069,0.652,0.061,-0.183,-0.061
0.761,0.072,0.652,0.000,-0.366,0.183
0.760,0.072,0.658,-0.183,-0.183,0.122
0.760,0.070,0.659,0.366,-0.122,-0.122
0.761,0.075,0.657,0.122,0.244,0.305
0.763,0.075,0.649,-0.183,0.610,0.366
0.761,0.072,0.640,0.000,0.122,-0.305
0.760,0.070,0.656,-0.122,-0.732,-0.061
0.761,0.074,0.663,0.000,-0.427,0.305
0.763,0.076,0.661,-0.122,0.183,0.061
0.762,0.073,0.655,0.244,0.244,-0.610
0.761,0.070,0.653,-0.061,0.244,-0.488
0.759,0.071,0.652,0.061,0.122,0.122
0.763,0.075,0.657,0.061,0.122,-0.427
0.760,0.072,0.657,0.000,0.549,-0.305
0.761,0.074,0.656,-0.183,0.610,-0.183
0.763,0.070,0.657,0.000,0.549,-0.610
0.758,0.073,0.653,0.061,0.488,0.183
0.765,0.073,0.650,-0.488,1.038,-0.366
0.762,0.071,0.647,0.122,0.305,-0.549
0.761,0.073,0.652,0.061,-0.061,-0.366
0.762,0.072,0.655,-0.427,0.427,-0.061
0.761,0.068,0.649,-0.122,0.549,-0.183
0.760,0.070,0.644,-0.244,0.183,0.244
0.762,0.068,0.645,-0.061,-0.305,0.610
0.762,0.070,0.652,0.244,-1.099,0.549
0.760,0.074,0.655,0.244,-0.610,0.549
0.761,0.075,0.655,0.122,-0.610,0.732
0.764,0.079,0.655,0.183,-0.549,0.732
0.762,0.074,0.659,0.122,-0.549,0.122
0.760,0.075,0.663,0.183,0.000,0.427
0.765,0.080,0.659,0.061,0.427,0.305
0.764,0.078,0.653,0.061,0.671,-0.427
0.763,0.077,0.644,-0.122,0.427,-0.305
0.762,0.074,0.656,-0.183,-0.183,-1.038
0.759,0.072,0.661,0.183,0.488,-0.977
0.762,0.073,0.656,-0.549,1.160,-0.610
0.761,0.069,0.645,-0.122,0.610,-0.977
0.758,0.065,0.644,0.000,0.000,-0.671
0.759,0.067,0.644,0.244,-0.183,-0.183
0.761,0.068,0.654,-0.244,-0.183,0.366
0.761,0.071,0.656,0.122,-0.366,0.671
0.761,0.072,0.658,0.122,-0.122,0.305
0.764,0.075,0.651,0.549,0.000,0.305
0.763,0.075,0.648,-0.122,-0.427,0.610
0.761,0.077,0.651,0.000,-0.671,-0.122
0.760,0.069,0.653,0.122,-0.671,-0.183
0.761,0.071,0.661,0.244,-0.549,0.122
0.757,0.070,0.653,-0.122,0.183,0.610
0.763,0.076,0.648,0.366,-0.244,0.549
0.760,0.074,0.655,0.061,-0.488,-0.061
0.759,0.072,0.649,0.183,-0.732,0.916
0.761,0.079,0.655,0.427,-1.099,0.610
0.760,0.076,0.663,0.061,-0.427,-0.244

0.375,0.048,0.930,-0.732,-7.019,0.854
0.369,0.051,0.927,1.526,-6.531,1.587
0.362,0.050,0.948,0.671,-7.690,3.967
0.363,0.057,0.931,0.305,-7.874,5.066
0.370,0.069,0.929,-3.113,-7.812,5.066
0.356,0.074,0.960,-2.502,-8.423,5.676
0.365,0.090,0.961,7.507,-13.550,4.578
0.362,0.080,0.967,5.676,-9.033,2.380
0.353,0.078,0.976,1.160,-5.127,4.272
0.354,0.087,0.977,4.578,-2.747,2.563
0.348,0.070,0.973,2.930,1.038,-1.099
0.343,0.067,0.965,-0.244,3.662,-1.038
0.346,0.064,0.956,0.732,5.005,-0.488
0.355,0.065,0.937,0.793,3.723,-1.221
0.349,0.058,0.932,0.977,3.357,-0.793
0.351,0.058,0.934,0.732,3.235,0.122
0.361,0.060,0.932,1.099,2.808,-0.427
0.363,0.066,0.938,1.221,2.380,-1.404
0.353,0.054,0.942,1.831,2.380,-1.282
0.358,0.056,0.932,2.258,1.892,-0.183
0.361,0.063,0.952,1.465,1.404,-0.122
0.359,0.055,0.946,-0.122,2.686,-1.099
0.355,0.042,0.918,0.244,2.808,-1.038
0.364,0.049,0.924,0.000,1.160,0.793
0.369,0.061,0.926,0.061,0.549,-0.244
0.365,0.058,0.941,-1.099,0.549,-0.732
0.360,0.055,0.950,0.793,-0.061,0.244
0.365,0.062,0.943,-0.183,0.549,0.671
0.367,0.059,0.946,-0.305,1.099,0.122
0.364,0.055,0.946,0.977,1.099,-0.488
0.362,0.054,0.933,-0.244,1.343,0.244
0.361,0.047,0.930,-0.061,0.671,0.305
0.365,0.046,0.923,0.427,-0.671,0.854
0.363,0.054,0.915,-0.427,0.183,0.610
0.365,0.059,0.927,0.000,-2.319,2.014
0.367,0.066,0.949,0.793,-1.892,1.404
0.366,0.065,0.944,-0.732,-0.793,-0.305
0.363,0.064,0.956,0.061,-0.427,0.061
0.360,0.056,0.955,-0.305,-0.183,1.038
0.363,0.059,0.941,0.061,0.671,0.732
0.364,0.055,0.938,0.793,0.610,1.404
0.360,0.050,0.937,1.953,0.122,2.930
0.356,0.046,0.937,0.305,-1.343,5.676
0.356,0.062,0.949,-0.305,-3.113,8.240
0.366,0.074,0.936,-3.235,-2.686,5.005
0.361,0.073,0.947,-3.418,0.000,3.540
0.359,0.067,0.938,0.122,-1.099,3.174
0.367,0.078,0.944,0.000,-0.305,2.686
0.363,0.072,0.936,0.732,-0.061,-1.587
0.361,0.074,0.943,0.061,0.061,-2.563
0.351,0.056,0.939,1.221,-0.854,-2.258
0.358,0.063,0.932,-0.061,0.916,0.671
0.360,0.064,0.932,-0.732,-1.160,1.343
0.355,0.054,0.929,0.183,-2.380,1.526
0.348,0.049,0.920,-1.038,-3.784,2.808
0.345,0.043,0.929,-1.709,-5.859,6.165
0.347,0.078,0.966,-0.854,-7.202,8.667
0.349,0.071,0.933,-1.343,-3.235,6.531
0.343,0.071,0.943,-4.517,-5.005,5.371
0.325,0.084,0.980,-2.747,-5.981,5.066
0.343,0.092,0.968,-1.526,-1.648,3.479
0.339,0.076,0.958,-0.488,-1.709,2.441
0.342,0.091,0.954,0.671,-2.075,0.610
0.354,0.107,0.950,0.488,0.793,-2.075
0.330,0.077,0.947,0.000,-0.549,-2.625
0.335,0.076,0.954,1.587,-1.343,-0.305
0.342,0.080,0.946,0.244,0.183,0.488
0.342,0.083,0.943,-1.282,0.488,-4.700
0.328,0.070,0.937,-0.732,-2.014,-2.747
0.332,0.072,0.953,0.977,-2.380,1.526
0.344,0.083,0.953,0.854,-2.014,-0.671
0.328,0.070,0.953,-0.610,-2.625,-3.235
0.329,0.078,0.942,0.305,-2.014,-0.122
0.333,0.075,0.951,1.709,-2.991,3.113
0.344,0.092,0.960,2.319,-2.502,-0.488
0.331,0.061,0.954,0.916,-1.282,-5.249
0.308,0.061,0.945,1.892,-3.113,-3.906
0.319,0.059,0.958,0.305,-1.770,1.892
0.339,0.084,0.957,0.488,-0.977,2.808
0.337,0.086,0.941,-1.038,-2.075,-2.808
0.324,0.070,0.947,-2.014,-3.723,-5.005
0.314,0.062,0.958,0.610,-8.118,-2.869
0.318,0.079,0.969,-0.854,-6.592,-1.099
0.312,0.073,0.963,-0.916,-2.502,-4.944
0.296,0.060,0.942,-2.869,-1.465,-3.235
0.306,0.062,0.933,-1.587,-0.793,1.038
0.320,0.088,0.934,-3.601,-1.648,3.113
0.334,0.105,0.958,0.183,-1.160,-2.686
0.305,0.062,0.962,-2.441,-4.761,-3.296
0.305,0.078,0.954,-3.113,-4.578,0.366
0.314,0.095,0.983,-1.221,-5.615,-0.610
0.314,0.081,0.946,-4.333,-8.118,-4.456
0.289,0.069,0.962,-3.296,-3.784,-3.174
0.286,0.079,0.971,1.465,-0.305,2.014
0.270,0.064,0.953,9.460,14.526,7.629
0.340,0.094,0.939,12.390,19.775,2.747
0.319,0.091,0.922,3.052,-19.836,-2.808
0.291,0.067,0.975,9.644,-7.202,-2.747
0.307,0.072,0.961,12.512,-2.075,-2.686
0.293,0.033,0.993,19.226,1.831,2.319
0.309,0.057,0.978,10.132,-0.305,-2.563
0.290,0.024,0.985,5.005,-2.441,0.305
0.306,0.053,0.944,1.526,2.625,3.052
0.312,0.058,0.964,-2.014,0.854,1.892
0.302,0.031,0.951,-0.183,-1.709,-2.014
0.293,0.038,0.955,-0.916,-0.488,-0.732
0.306,0.057,0.951,-0.183,-2.258,3.113
0.300,0.042,0.980,-0.977,-1.892,-0.671
0.293,0.033,0.983,0.427,0.122,-2.441
0.288,0.043,0.968,-0.183,-0.488,0.610
0.301,0.047,0.976,0.366,0.671,2.991
0.306,0.049,0.949,1.282,0.122,0.916
0.291,0.040,0.956,0.488,1.709,-0.977
0.304,0.056,0.962,0.366,0.183,1.038
0.309,0.052,0.964,0.916,-1.709,2.075
0.303,0.045,0.970,-0.122,-0.244,-1.709
0.291,0.044,0.957,0.977,0.793,-1.587
0.299,0.049,0.967,0.610,-0.061,0.244
0.300,0.038,0.967,-1.221,-1.038,1.099
0.299,0.051,0.952,0.305,-1.099,-0.366
0.298,0.047,0.966,-0.549,-0.488,-0.610
0.295,0.044,0.961,0.427,-0.061,-0.427
0.296,0.041,0.979,0.000,0.061,-0.305
0.292,0.041,0.955,0.305,-1.099,1.099
0.297,0.045,0.966,0.305,0.244,-0.061

0.288,0.049,0.977,-1.282,-0.916,0.061
0.302,0.044,0.962,-0.366,0.610,1.221
0.295,0.050,0.969,0.732,3.662,-1.587
0.292,0.043,0.961,0.977,0.061,-2.075
0.288,0.038,0.969,-0.854,-1.221,-0.977
0.293,0.041,0.976,-0.366,-0.977,0.488
0.285,0.031,0.951,0.793,-0.488,-0.427
0.285,0.034,0.969,-0.366,-1.343,-0.305
0.287,0.033,0.968,0.854,-2.441,0.061
0.284,0.027,0.978,-0.732,-1.770,0.366
0.282,0.041,0.974,0.305,-2.136,1.221
0.285,0.044,0.971,1.587,0.061,1.526
0.292,0.049,0.965,1.587,-0.244,-0.061
0.286,0.025,0.964,1.282,1.587,-0.488
0.289,0.041,0.946,-1.038,0.183,0.122
0.286,0.033,0.954,0.488,-0.671,-0.061
0.282,0.028,0.953,-0.183,-2.075,0.183
0.282,0.034,0.967,-0.427,-2.075,1.770
0.290,0.056,0.983,-0.427,-2.625,1.404
0.286,0.054,0.974,-1.099,-0.488,-0.427
0.289,0.050,0.977,0.122,-0.183,-1.038
0.278,0.041,0.971,-0.610,-1.160,-0.305
0.278,0.030,0.976,-0.916,-0.183,-0.610
0.277,0.036,0.973,0.061,-0.671,-0.427
0.279,0.037,0.976,0.122,-1.282,-0.427
0.284,0.044,0.964,-1.221,-1.526,-0.549
0.277,0.038,0.958,-0.793,-1.648,0.061
0.280,0.036,0.960,-1.404,-0.427,0.244
0.278,0.037,0.970,-0.732,0.122,0.366
0.275,0.040,0.967,-0.427,-1.282,-0.671
0.272,0.031,0.976,0.000,-1.648,-0.427
0.276,0.042,0.977,-2.136,-1.038,1.465
0.284,0.052,0.962,0.366,0.732,0.488
0.274,0.039,0.961,-0.183,-0.977,-0.305
0.275,0.046,0.975,-0.183,-1.099,0.244
0.278,0.044,0.972,-0.305,0.488,0.793
0.277,0.047,0.974,-0.366,0.977,-0.183
0.273,0.049,0.974,0.244,-0.916,0.488
0.275,0.042,0.972,0.000,0.488,0.427
0.277,0.039,0.977,1.343,1.465,0.000
0.280,0.050,0.962,1.404,0.427,0.366
0.275,0.038,0.956,-1.099,-0.854,-0.427
0.275,0.037,0.964,0.122,-1.648,-0.549
0.276,0.045,0.979,-0.366,-0.305,0.549
0.276,0.044,0.974,-0.122,-0.366,0.671
0.272,0.042,0.976,1.160,-0.610,-0.305
0.272,0.044,0.964,-0.061,0.183,0.610
0.280,0.047,0.964,-0.916,0.427,1.343
0.282,0.059,0.983,0.122,-1.953,-0.061
0.273,0.045,0.982,-1.343,-0.671,-1.404
0.274,0.046,0.975,-0.610,0.427,-1.160
0.273,0.037,0.960,-0.732,0.427,0.244
0.273,0.034,0.945,-0.061,-0.854,-0.183
0.262,0.027,0.973,-0.610,-1.892,-0.244
0.261,0.036,0.988,-1.099,-1.160,1.160
0.278,0.059,0.971,2.075,-0.916,2.563
0.280,0.049,0.964,-0.549,0.061,1.038
0.277,0.052,0.957,0.977,-1.038,-0.122
0.266,0.051,0.966,0.366,-1.099,0.427
0.261,0.034,0.974,-0.061,-2.136,0.305
0.267,0.041,1.001,-0.549,-1.953,0.793
0.261,0.052,0.994,0.366,0.244,1.160
0.268,0.065,0.984,0.183,1.892,0.916
0.282,0.069,0.974,0.244,1.221,0.366
0.277,0.056,0.968,0.305,0.549,-0.671
0.279,0.051,0.951,0.122,1.770,-1.526
0.277,0.046,0.944,-0.854,-0.305,-1.709
0.269,0.035,0.974,1.038,-1.099,-2.136
0.262,0.031,0.989,2.014,-0.122,-1.343
0.257,0.035,0.970,-0.183,0.549,0.305
0.266,0.045,0.985,-0.854,1.038,0.977
0.280,0.056,0.977,-1.526,2.930,-0.305
0.274,0.050,0.967,0.671,2.319,-0.977
0.276,0.042,0.959,-0.671,0.488,-0.488
0.275,0.036,0.964,0.854,-0.061,-1.709
0.269,0.030,0.948,-0.366,0.671,-0.610
0.272,0.037,0.963,-0.122,-0.427,0.732
0.274,0.041,0.976,-0.122,-1.343,1.465
0.276,0.052,0.971,0.488,-0.732,0.305
0.277,0.054,0.973,0.549,0.061,0.488
0.281,0.059,0.972,0.549,0.244,0.610
0.273,0.049,0.973,-0.061,-0.305,-0.671
0.260,0.038,0.987,-1.038,-1.038,-0.793
0.261,0.037,0.990,0.183,0.061,0.305
0.271,0.043,0.973,0.427,2.014,0.671
0.279,0.052,0.960,-1.221,2.258,0.366
0.279,0.044,0.963,-0.854,0.732,-0.183
0.280,0.048,0.961,0.793,0.244,-0.305
0.281,0.053,0.960,-1.282,0.122,0.122
0.277,0.046,0.960,0.122,-0.305,-1.160
0.268,0.035,0.978,0.061,-1.038,-0.916
0.270,0.042,0.969,0.183,-0.427,0.732
0.275,0.047,0.969,0.427,0.793,0.977
0.280,0.052,0.965,-1.282,-0.793,-0.061
0.273,0.049,0.966,-0.427,-0.916,0.061
0.272,0.048,0.975,-0.061,-1.099,-0.122
0.273,0.046,0.978,0.671,0.488,-0.366
0.266,0.041,0.980,0.610,0.427,-0.366
0.271,0.041,0.978,0.916,1.526,0.488
0.275,0.051,0.970,0.732,1.038,0.793
0.278,0.049,0.957,-0.732,1.221,0.671
0.280,0.053,0.962,0.366,-0.366,0.610
0.276,0.049,0.960,0.732,-1.282,0.305
0.272,0.048,0.974,0.244,-1.343,-0.366
0.272,0.047,0.986,0.671,-0.854,-0.366
0.275,0.050,0.973,1.099,0.610,-0.122
0.272,0.043,0.970,-0.366,-0.427,-0.183
0.275,0.047,0.967,0.977,0.488,-0.305
0.273,0.043,0.964,0.854,-0.854,-0.305
0.271,0.042,0.972,-0.183,-0.977,0.122
0.271,0.043,0.966,0.732,0.854,0.366
0.275,0.041,0.964,-0.305,-0.610,0.122
0.274,0.043,0.958,0.366,-1.831,0.244
0.268,0.041,0.974,-0.488,-2.441,0.244
0.265,0.042,0.979,0.427,-0.549,0.610
0.272,0.048,0.975,0.916,-1.282,1.465
0.272,0.050,0.972,0.244,-1.160,0.732
0.269,0.052,0.976,-0.366,-1.343,0.000
0.273,0.049,0.975,0.122,-0.549,0.244
0.268,0.044,0.966,1.038,-0.549,-0.183
0.263,0.041,0.973,-1.038,-1.526,-0.305
0.266,0.051,0.983,0.183,-2.075,0.732
0.268,0.047,0.987,-0.183,0.488,-0.305
0.267,0.051,0.972,0.610,0.732,-0.305
0.269,0.052,0.966,-0.732,-0.305,0.061

0.271,0.046,0.970,0.427,0.366,0.122
0.269,0.046,0.970,0.610,0.061,-0.183
0.269,0.048,0.966,0.610,-0.366,0.366
0.272,0.044,0.971,0.061,0.244,0.549
0.269,0.042,0.967,0.854,0.366,-0.183
0.265,0.038,0.973,-0.061,0.183,0.061
0.268,0.040,0.974,0.366,-0.549,0.732
0.268,0.040,0.969,0.549,-0.061,0.488
0.272,0.053,0.971,-1.465,0.000,0.732
0.272,0.049,0.974,0.244,0.000,0.732
0.270,0.050,0.975,-0.488,-0.610,0.122
0.270,0.049,0.978,-0.427,0.183,-0.488
0.266,0.041,0.970,-0.549,0.183,-0.305
0.268,0.046,0.967,0.061,-0.366,0.061
0.267,0.043,0.969,-1.160,0.366,0.366
0.267,0.043,0.976,0.000,0.793,0.122
0.268,0.045,0.975,-0.061,-0.854,0.244
0.267,0.050,0.976,0.000,-0.122,0.427
0.273,0.054,0.966,0.000,0.366,-0.122
0.273,0.054,0.978,0.000,1.099,-0.549
0.268,0.042,0.964,-0.916,-1.282,0.183
0.268,0.045,0.971,-0.366,0.000,-0.244
0.266,0.041,0.976,0.610,0.793,-0.366
0.269,0.045,0.970,-0.366,0.488,0.244
0.270,0.050,0.969,-0.244,-1.099,0.793
0.273,0.053,0.973,-0.061,-0.183,-0.488
0.269,0.053,0.973,-1.099,0.366,-0.183
0.268,0.052,0.977,-0.305,-0.793,-0.061
0.268,0.042,0.976,0.122,-0.793,-0.488
0.267,0.044,0.967,0.061,0.977,-0.305
0.267,0.045,0.963,0.000,0.793,0.183
0.270,0.049,0.968,-0.061,-0.854,0.427
0.269,0.048,0.984,-0.366,-0.732,0.183
0.265,0.047,0.981,0.244,0.671,-0.122
0.272,0.060,0.972,0.061,0.549,0.854
0.278,0.054,0.963,0.061,1.221,0.122
0.268,0.046,0.965,1.099,-0.122,-1.404
0.262,0.041,0.971,-0.427,-0.916,-0.549
0.266,0.043,0.975,-0.183,0.427,0.977
0.272,0.046,0.971,0.549,1.343,0.061
0.266,0.051,0.968,-0.427,-1.221,-0.122
0.271,0.051,0.974,0.366,0.183,0.488
0.269,0.050,0.973,0.000,-0.122,-0.061
0.265,0.051,0.974,0.366,0.366,-0.366
0.270,0.046,0.973,0.305,2.136,0.000
0.269,0.050,0.971,-0.549,-1.160,0.244
0.267,0.049,0.969,-0.427,-0.061,1.709
0.271,0.047,0.969,-0.061,-0.183,1.343
0.267,0.049,0.969,0.610,-0.183,1.160
0.272,0.053,0.977,0.610,1.404,0.122
0.269,0.051,0.976,-0.610,-0.793,0.366
0.270,0.053,0.973,-0.061,0.549,0.427
0.273,0.052,0.979,0.000,1.404,0.000
0.270,0.052,0.967,1.343,1.404,-0.610
0.268,0.044,0.964,-0.244,-1.038,-0.366
0.268,0.044,0.976,0.366,-0.366,0.366
0.266,0.042,0.967,0.549,0.671,0.366
0.269,0.047,0.970,0.366,0.671,0.549
0.271,0.050,0.971,0.854,0.549,0.854
0.275,0.052,0.968,1.099,0.244,0.916
0.274,0.055,0.970,0.366,-0.244,0.488
0.273,0.056,0.972,0.122,0.061,-0.061
0.274,0.056,0.973,-0.061,0.488,0.061
0.272,0.045,0.974,1.160,1.465,-0.488
0.267,0.040,0.967,-0.061,-0.122,-0.671
0.271,0.046,0.970,0.244,0.305,0.122
0.271,0.047,0.976,-0.061,0.732,0.061
0.271,0.048,0.969,0.366,0.366,-0.122
0.276,0.051,0.977,0.183,0.793,0.000
0.275,0.049,0.968,0.244,-0.793,0.061
0.271,0.048,0.965,-0.305,-0.122,-0.366
0.271,0.046,0.970,-0.549,-0.977,-0.244
0.269,0.045,0.975,0.183,-1.221,-0.366
0.267,0.046,0.968,-0.244,0.427,-0.122
0.269,0.044,0.976,-0.244,-0.366,0.549
0.275,0.047,0.965,0.732,-0.488,0.122
0.268,0.044,0.964,-0.305,-1.648,-0.183
0.266,0.047,0.976,0.671,-0.793,0.732
0.274,0.053,0.976,0.366,0.854,0.610
0.265,0.044,0.985,0.000,-1.404,-0.122
0.268,0.053,0.972,0.000,0.366,0.610
0.273,0.054,0.969,-0.671,0.916,0.610
0.274,0.052,0.970,-0.122,-0.244,-0.366
0.271,0.053,0.974,0.427,-0.366,-1.221
0.269,0.052,0.973,0.061,-0.244,-1.221
0.265,0.041,0.970,-0.488,-0.549,-1.221
0.264,0.033,0.972,0.549,0.122,-1.526
0.264,0.045,0.970,0.977,-2.258,-0.732
0.270,0.040,0.972,0.732,-1.038,-0.427
0.265,0.047,0.963,0.977,-2.502,-1.099
0.262,0.045,0.967,0.610,-1.648,-0.793
0.264,0.039,0.965,0.488,-0.793,0.183
0.266,0.038,0.966,-0.061,-1.404,0.122
0.260,0.037,0.978,-0.305,-2.686,-0.183
0.260,0.051,0.980,-0.061,-2.441,0.488
0.262,0.047,0.990,0.854,0.061,-0.061
0.262,0.062,0.989,-0.366,-0.610,-0.244
0.270,0.073,0.984,0.000,0.000,-0.793
0.262,0.057,0.983,0.183,0.488,-3.174
0.271,0.060,0.991,1.221,0.916,-3.723
0.274,0.047,0.971,-0.183,0.977,-3.845
0.266,0.043,0.968,1.831,-0.671,-4.883
0.243,-0.002,0.981,0.366,0.427,-6.042
0.232,-0.020,0.987,1.160,2.380,-0.610
0.282,0.038,0.943,1.282,1.465,3.723
0.276,0.016,0.939,-0.977,-0.305,0.305
0.265,0.032,0.986,0.366,-0.305,2.075
0.280,0.074,0.977,1.587,-0.610,4.089
0.285,0.078,0.990,-0.671,0.000,1.465
0.264,0.062,0.997,-0.671,1.160,-0.732
0.256,0.057,0.953,-0.916,4.456,-1.587
0.251,0.047,0.952,-1.526,0.671,0.061
0.278,0.079,0.970,-0.427,0.000,1.099
0.277,0.077,0.954,-0.366,1.099,-1.465
0.264,0.054,0.966,-1.343,-1.343,-3.174
0.269,0.053,0.977,-1.038,-0.427,-2.319
0.258,0.030,0.981,-0.122,0.122,-2.808
0.243,0.011,0.984,-0.488,-0.732,-2.441
0.251,0.022,0.969,-0.061,1.221,-0.366
0.263,0.032,0.962,0.671,-0.061,1.465
0.266,0.047,0.970,0.000,-1.221,1.465
0.274,0.065,0.981,-0.366,-0.183,0.916
0.277,0.070,0.989,-0.488,0.549,0.305
0.271,0.059,0.988,-0.244,0.610,-1.831
0.265,0.046,0.989,0.183,1.282,-2.808

0.182,-0.291,0.961,25.330,3.235,-11.597
0.220,-0.251,0.890,48.157,12.756,-4.944
0.258,-0.267,0.797,29.785,-0.732,-2.869
0.222,-0.272,0.962,35.278,-5.859,-11.475
0.067,-0.478,1.345,16.296,-19.165,-16.479
0.287,-0.316,1.213,37.109,40.710,9.766
0.261,-0.294,0.704,13.184,27.527,2.991
0.177,-0.307,0.807,0.793,10.193,-4.150
0.105,-0.425,0.997,5.676,10.742,-3.052
0.105,-0.380,1.097,82.764,58.472,17.212
0.344,-0.452,0.780,114.258,86.731,44.067
0.443,-0.391,0.800,52.856,29.358,46.143
0.378,-0.466,0.800,22.400,6.531,11.902
0.333,-0.470,0.810,-13.489,-5.127,-12.878
0.291,-0.417,0.882,-28.198,-18.250,-11.230
0.286,-0.439,0.931,-1.038,-31.128,2.869
0.292,-0.486,0.891,13.245,-6.653,5.310
0.294,-0.448,0.869,-7.935,4.272,-0.977
0.268,-0.449,0.870,-8.423,-0.427,3.174
0.282,-0.447,0.848,-7.935,-6.531,9.338
0.302,-0.400,0.918,-2.014,-3.723,4.211
0.306,-0.409,0.830,8.728,7.263,-3.784
0.300,-0.381,0.844,-1.099,4.333,-3.845
0.292,-0.416,0.839,-7.141,-3.540,3.479
0.307,-0.396,0.878,-12.634,-13.916,6.531
0.303,-0.401,0.927,2.502,-0.671,-0.671
0.289,-0.414,0.870,6.592,5.310,-5.920
0.268,-0.429,0.851,3.662,5.493,-2.563
0.283,-0.453,0.869,2.014,-0.610,2.686
0.276,-0.427,0.932,17.151,10.681,2.014
0.313,-0.451,0.817,13.733,20.142,0.549
0.306,-0.436,0.821,1.160,5.249,3.418
0.332,-0.413,0.840,-2.930,-2.014,2.502
0.328,-0.409,0.872,-9.399,-8.301,-2.014
0.306,-0.427,0.868,-5.859,-5.005,-2.441
0.295,-0.430,0.883,-2.991,-1.404,-0.305
0.311,-0.410,0.849,-0.488,2.014,2.014
0.293,-0.437,0.831,0.427,0.793,-2.258
0.293,-0.453,0.849,-6.042,-3.357,-1.404
0.293,-0.436,0.871,-7.446,-9.338,1.953
0.294,-0.415,0.889,-1.038,1.160,0.305
0.311,-0.418,0.871,1.160,8.179,-3.479
0.312,-0.410,0.885,0.732,1.709,0.366
0.301,-0.415,0.887,-1.221,-3.052,1.282
0.301,-0.413,0.864,-2.930,2.686,-0.122
0.311,-0.401,0.851,-2.808,3.662,-1.160
0.303,-0.422,0.858,-1.221,-0.916,-2.197
0.297,-0.434,0.868,-1.648,0.610,-2.502
0.297,-0.431,0.864,-1.099,-0.183,-0.854
0.295,-0.422,0.842,-2.563,-1.282,0.427
0.308,-0.406,0.860,-4.395,-0.977,0.305
0.311,-0.411,0.890,1.099,1.953,0.061
0.301,-0.411,0.840,1.892,0.427,-2.625
0.292,-0.414,0.841,-2.197,-1.892,-1.526
0.301,-0.419,0.861,-1.282,-3.113,-0.366
0.307,-0.415,0.857,1.343,-1.770,-2.014
0.292,-0.412,0.866,-0.305,-4.211,-3.601
0.289,-0.411,0.864,-2.563,-4.089,-0.427
0.303,-0.393,0.869,-3.296,-4.395,0.610
0.317,-0.396,0.885,1.343,0.183,-3.784
0.306,-0.387,0.868,-1.587,-0.183,-5.249
0.292,-0.403,0.903,-2.319,0.061,-4.517
0.269,-0.443,0.939,-3.845,2.502,-0.793
0.291,-0.435,0.891,-3.479,8.240,0.732
0.282,-0.427,0.849,-5.310,7.812,1.038
0.280,-0.453,0.906,-5.249,10.559,2.563
0.287,-0.457,0.864,-2.014,12.207,4.272
0.299,-0.418,0.855,-6.165,7.080,7.446
0.317,-0.384,0.853,-4.883,3.540,8.118
0.335,-0.345,0.838,-5.005,-1.160,6.104
0.348,-0.349,0.879,1.526,-1.343,3.296
0.305,-0.388,0.882,-3.296,-2.930,-1.221
0.336,-0.375,0.869,-11.841,13.306,-4.395
0.322,-0.382,0.889,6.470,-5.798,13.550
0.279,-0.437,0.870,2.625,-17.639,-2.930
0.310,-0.387,0.867,-5.066,11.230,-7.019
0.310,-0.403,0.871,3.357,-5.676,5.005
0.321,-0.387,0.847,4.150,1.404,5.493
0.324,-0.379,0.879,-0.061,-3.113,3.113
0.336,-0.369,0.885,1.282,-0.977,-0.977
0.319,-0.373,0.888,-0.183,-1.587,0.183
0.322,-0.380,0.876,-0.610,-0.305,-0.488
0.314,-0.399,0.888,0.122,-0.854,-2.075
0.317,-0.397,0.883,-0.244,1.282,0.244
0.322,-0.388,0.874,0.366,1.282,0.183
0.322,-0.390,0.854,0.244,-0.549,-1.526
0.308,-0.392,0.855,-0.244,-3.174,-1.953
0.307,-0.405,0.878,-0.916,-3.601,1.282
0.308,-0.394,0.877,0.916,-1.526,3.479
0.315,-0.381,0.862,2.319,-2.075,2.563
0.312,-0.388,0.888,0.305,1.892,0.061
0.321,-0.389,0.885,0.610,-0.671,2.441
0.308,-0.397,0.887,1.343,1.831,2.930
0.324,-0.379,0.857,1.404,6.165,4.211
0.332,-0.375,0.871,-0.549,1.526,2.991
0.330,-0.381,0.864,1.709,3.906,2.075
0.322,-0.381,0.877,-1.404,-0.061,1.099
0.318,-0.392,0.882,-0.916,-3.052,2.441
0.319,-0.392,0.859,-0.610,-4.639,2.197
0.315,-0.393,0.878,-2.014,-2.869,3.235
0.320,-0.385,0.894,-0.671,-3.723,6.104
0.332,-0.377,0.880,1.953,-6.470,6.836
0.321,-0.384,0.870,2.625,-4.639,2.441
0.315,-0.381,0.883,1.587,-0.671,2.441
0.320,-0.376,0.867,1.709,-2.197,2.441
0.326,-0.378,0.885,2.014,0.000,0.549
0.318,-0.387,0.873,2.930,1.099,-0.366
0.312,-0.396,0.873,1.709,2.380,-0.977
0.305,-0.400,0.867,-0.610,-0.916,0.793
0.317,-0.391,0.873,-0.183,-2.258,0.671
0.326,-0.381,0.887,0.610,-2.686,-1.587
0.313,-0.388,0.882,1.831,-1.587,0.427
0.313,-0.385,0.867,0.610,-2.319,1.282
0.319,-0.384,0.876,1.221,-1.160,-0.244
0.313,-0.386,0.880,1.892,-0.549,-0.122
0.313,-0.399,0.891,2.258,0.916,1.160
0.310,-0.386,0.852,4.272,1.526,0.610
0.308,-0.388,0.880,1.038,-1.282,-0.244
0.319,-0.399,0.882,0.549,-2.014,1.526
0.305,-0.386,0.866,-1.831,1.587,0.183
0.327,-0.390,0.894,-0.610,0.366,-0.244
0.302,-0.401,0.864,2.930,-7.385,1.221
0.321,-0.379,0.879,1.465,-0.671,3.601
0.312,-0.397,0.878,1.343,-2.930,1.038
0.312,-0.395,0.881,-0.183,-0.610,1.648

0.255,-0.490,0.786,-4.761,-8.301,0.793
0.284,-0.490,0.852,2.502,-6.897,0.183
0.285,-0.474,0.816,0.244,-2.380,1.404
0.276,-0.470,0.844,5.310,2.136,-0.366
0.306,-0.491,0.875,6.775,4.150,0.732
0.281,-0.495,0.899,-1.465,0.671,6.226
0.239,-0.487,0.880,-4.944,-3.235,6.226
0.261,-0.472,0.852,-9.277,-1.770,2.563
0.283,-0.451,0.759,-1.343,4.089,-0.427
0.283,-0.452,0.775,4.395,3.418,0.305
0.237,-0.442,0.845,12.329,4.211,-4.028
0.281,-0.477,0.869,-2.075,-6.653,0.061
0.298,-0.496,0.876,-2.441,-4.211,0.793
0.287,-0.490,0.870,-0.061,-0.244,1.099
0.250,-0.466,0.830,-2.686,1.892,-0.854
0.308,-0.485,0.858,-2.625,-1.099,-1.038
0.271,-0.473,0.778,-9.766,-9.888,4.517
0.247,-0.458,0.814,3.967,-5.249,2.991
0.295,-0.465,0.898,6.042,0.793,-0.122
0.298,-0.477,0.865,-5.493,-4.639,2.991
0.223,-0.460,0.807,-2.319,-1.770,4.456
0.246,-0.459,0.876,4.883,1.526,-1.831
0.302,-0.473,0.858,-4.272,-2.563,-2.258
0.272,-0.473,0.823,-3.723,-3.601,2.319
0.238,-0.462,0.833,2.625,0.427,1.770
0.269,-0.468,0.859,0.610,-2.563,-2.441
0.312,-0.481,0.861,-0.488,0.244,-0.793
0.268,-0.478,0.847,-0.183,1.038,0.671
0.248,-0.465,0.808,8.301,3.662,-1.587
0.271,-0.467,0.892,1.221,-0.427,-0.977
0.273,-0.472,0.877,-6.409,-5.920,1.038
0.286,-0.480,0.834,-3.296,0.671,3.540
0.240,-0.465,0.819,8.362,10.132,0.916
0.259,-0.471,0.878,3.723,3.662,-2.197
0.288,-0.467,0.861,-6.592,-7.385,0.427
0.270,-0.463,0.795,-0.977,-2.747,0.854
0.255,-0.460,0.856,2.625,0.000,-0.305
0.254,-0.472,0.831,-1.709,-4.150,-2.258
0.285,-0.479,0.860,4.395,-2.014,-0.916
0.272,-0.482,0.893,1.221,-0.427,0.671
0.248,-0.475,0.846,-2.136,0.916,-0.305
0.280,-0.479,0.854,0.427,1.038,-0.793
0.263,-0.465,0.836,-2.197,-3.418,2.197
0.248,-0.456,0.824,0.366,1.221,0.854
0.254,-0.464,0.862,3.845,2.380,-1.831
0.282,-0.481,0.856,-0.427,-0.610,-1.587
0.260,-0.478,0.859,0.488,-2.686,0.854
0.273,-0.476,0.821,0.732,3.113,-0.427
0.262,-0.470,0.863,6.897,5.493,-0.793
0.266,-0.469,0.882,-0.854,-2.869,0.427
0.280,-0.475,0.845,-6.958,-8.423,1.343
0.248,-0.467,0.810,-2.502,-0.854,1.160
0.258,-0.472,0.855,3.113,0.000,-0.549
0.266,-0.472,0.850,-0.793,-1.587,-1.160
0.279,-0.475,0.856,0.244,-1.892,0.793
0.257,-0.473,0.859,-1.404,-3.235,2.319
0.244,-0.474,0.842,0.427,2.319,-1.343
0.276,-0.478,0.861,2.014,-0.916,0.305
0.260,-0.469,0.858,-0.671,0.244,1.465
0.260,-0.474,0.857,-1.282,-0.610,0.854
0.259,-0.462,0.824,-0.610,-0.732,0.122
0.264,-0.465,0.845,3.052,1.831,0.671
0.251,-0.463,0.868,0.244,0.549,0.854
0.252,-0.468,0.841,-0.916,-0.854,-0.549
0.263,-0.471,0.848,2.625,0.610,-0.610
0.268,-0.479,0.872,1.587,2.319,0.244
0.265,-0.478,0.854,-0.916,0.122,0.671
0.262,-0.470,0.843,-1.099,-0.305,1.526
0.262,-0.466,0.842,-0.122,-0.183,-0.061
0.268,-0.466,0.823,0.183,-0.244,-0.061
0.253,-0.469,0.852,3.967,1.343,0.977
0.253,-0.471,0.870,1.282,-1.953,-0.244
0.273,-0.475,0.847,-1.343,-1.160,-1.099
0.270,-0.476,0.848,1.221,1.709,0.977
0.252,-0.472,0.849,1.465,0.732,1.892
0.243,-0.465,0.864,1.221,0.549,-0.366
0.284,-0.474,0.852,-1.892,-1.282,-1.160
0.256,-0.468,0.823,-1.526,-0.488,1.465
0.238,-0.470,0.840,3.967,3.174,-1.099
0.283,-0.485,0.875,2.075,0.610,-2.686
0.289,-0.486,0.851,-1.526,-1.831,-0.122
0.264,-0.479,0.846,0.488,0.610,1.892
0.259,-0.476,0.861,-2.014,-1.648,0.671
0.266,-0.470,0.818,-0.183,-0.183,0.793
0.267,-0.471,0.857,2.808,1.892,1.404
0.254,-0.466,0.849,0.000,-0.122,1.099
0.263,-0.477,0.851,-1.526,-0.305,0.183
0.260,-0.472,0.844,1.038,-0.854,0.366
0.276,-0.476,0.845,-0.366,0.793,0.183
0.268,-0.476,0.853,1.831,1.587,1.343
0.248,-0.466,0.843,0.610,-1.343,-0.061
0.278,-0.481,0.859,-2.808,-0.305,0.244
0.266,-0.469,0.832,1.282,3.357,0.916
0.266,-0.471,0.879,1.160,0.183,1.343
0.259,-0.461,0.812,-4.761,-3.601,1.526
0.276,-0.471,0.859,1.892,1.343,1.221
0.253,-0.467,0.843,-1.831,-2.380,2.197
0.245,-0.468,0.828,1.526,2.380,-0.061
0.266,-0.475,0.873,3.601,1.221,-2.563
0.296,-0.479,0.860,-2.136,-3.418,-0.183
0.247,-0.470,0.816,-0.977,1.831,1.770
0.262,-0.470,0.863,3.235,-0.061,-1.160
0.272,-0.464,0.848,-1.526,-2.380,-0.854
0.261,-0.473,0.851,0.977,1.709,0.488
0.247,-0.470,0.841,-0.610,-1.038,-0.183
0.268,-0.474,0.847,1.892,1.709,-2.441
0.285,-0.481,0.864,0.366,-0.793,-0.977
0.266,-0.474,0.834,-1.526,-0.427,0.916
0.261,-0.477,0.839,2.197,1.892,0.549
0.252,-0.474,0.854,0.732,-0.610,-0.671
0.282,-0.480,0.846,1.160,0.549,-1.038
0.291,-0.485,0.867,-0.427,-0.610,2.258
0.253,-0.473,0.844,-0.793,2.136,2.502
0.242,-0.465,0.834,0.061,-0.977,0.427
0.268,-0.467,0.847,0.366,0.549,-0.916
0.255,-0.464,0.852,3.845,2.014,-0.549
0.278,-0.477,0.859,-1.831,-1.770,0.122
0.253,-0.472,0.824,0.061,1.648,-0.549
0.283,-0.483,0.849,1.587,0.122,-0.610
0.278,-0.478,0.858,-0.305,-1.526,-0.305
0.266,-0.476,0.849,-0.671,-0.366,0.610
0.267,-0.475,0.840,-0.061,1.648,0.244
0.258,-0.466,0.831,0.854,-0.122,0.671
0.261,-0.474,0.847,2.197,1.404,-0.488
0.275,-0.479,0.866,0.916,0.122,-0.427

0.263,-0.474,0.837,-3.479,-1.526,-0.305
0.273,-0.476,0.832,-1.770,-1.038,0.122
0.258,-0.472,0.832,1.587,-0.549,-0.122
0.277,-0.482,0.880,0.366,0.061,0.244
0.244,-0.476,0.819,-2.747,-2.441,0.671
0.264,-0.474,0.874,3.418,4.150,-1.038
0.249,-0.468,0.829,-3.357,-3.418,-0.793
0.253,-0.468,0.850,1.770,1.221,-2.441
0.243,-0.471,0.876,-1.160,2.014,-4.517
0.299,-0.490,0.843,-2.686,-0.427,-3.174
0.270,-0.484,0.827,0.000,2.441,0.122
0.259,-0.471,0.851,0.671,0.061,0.244
0.264,-0.472,0.835,0.122,-1.099,0.000
0.260,-0.474,0.847,2.014,-0.244,-0.122
0.262,-0.478,0.861,0.305,-0.122,-0.305
0.252,-0.474,0.848,1.160,2.014,0.061
0.261,-0.476,0.856,-1.892,-0.732,-0.549
0.269,-0.479,0.835,-1.648,-0.061,-0.732
0.279,-0.476,0.846,3.113,2.930,-0.122
0.261,-0.476,0.843,-0.549,-0.610,1.099
0.267,-0.486,0.841,0.671,0.427,0.183
0.258,-0.479,0.852,2.502,2.258,0.244
0.268,-0.480,0.864,0.732,0.244,0.244
0.275,-0.480,0.836,-2.075,-1.160,1.221
0.265,-0.473,0.849,1.343,1.892,2.014
0.253,-0.470,0.836,-2.075,-1.465,1.160
0.275,-0.477,0.840,0.793,0.427,0.488
0.256,-0.474,0.864,0.732,1.953,0.732
0.271,-0.480,0.842,-2.380,-0.977,-0.244
0.263,-0.475,0.832,-0.061,-0.244,0.183
0.276,-0.482,0.860,1.648,1.953,0.183
0.263,-0.475,0.844,-1.343,-2.258,1.465
0.264,-0.470,0.849,-0.244,0.488,0.610
0.261,-0.474,0.846,-1.282,1.038,-0.488
0.271,-0.475,0.858,-1.038,0.732,-0.366
0.254,-0.472,0.850,-1.953,-0.122,-0.244
0.261,-0.472,0.853,-3.540,-1.892,-1.709
0.264,-0.469,0.838,-1.770,-1.831,-2.136
0.269,-0.473,0.856,-2.075,-0.061,-1.526
0.279,-0.480,0.858,-3.113,-0.366,-0.305
0.279,-0.470,0.847,-1.648,0.000,0.854
0.259,-0.454,0.827,-2.380,-0.244,0.671
0.272,-0.467,0.821,1.221,-0.916,-0.793
0.280,-0.467,0.880,-1.404,-1.160,0.916
0.253,-0.460,0.834,-1.831,-1.709,0.977
0.253,-0.463,0.848,1.526,-0.427,-0.671
0.266,-0.463,0.862,-0.916,-2.991,-1.160
0.270,-0.477,0.850,-2.197,-3.540,0.488
0.219,-0.462,0.862,2.747,1.526,1.587
0.229,-0.468,0.898,1.465,0.671,-2.014
0.287,-0.489,0.881,-5.432,-2.930,-2.869
0.259,-0.463,0.838,-4.944,-1.953,-0.244
0.228,-0.444,0.856,0.549,3.601,-1.587
0.263,-0.454,0.845,-2.136,-0.305,-4.456
0.253,-0.453,0.852,-3.113,-3.479,-2.380
0.258,-0.473,0.850,0.854,1.648,-1.526
0.245,-0.464,0.879,1.648,2.625,-0.366
0.270,-0.479,0.879,-0.793,3.479,-0.854
0.265,-0.473,0.824,-1.465,1.709,0.305
0.289,-0.476,0.908,4.456,7.019,1.160
0.253,-0.463,0.840,-6.958,-1.892,3.784
0.248,-0.452,0.851,-1.099,0.671,2.930
0.263,-0.472,0.865,-7.385,2.014,-1.038
0.294,-0.443,0.806,0.305,4.578,1.038
0.275,-0.457,0.875,-2.380,-0.061,1.465
0.287,-0.456,0.828,-1.831,-0.061,2.502
0.267,-0.456,0.849,0.244,-1.038,2.197
0.264,-0.441,0.854,-0.610,-0.671,2.014
0.262,-0.444,0.862,-1.343,-2.197,1.953
0.248,-0.440,0.841,0.183,-2.991,1.587
0.256,-0.442,0.853,-0.488,-2.563,-0.122
0.269,-0.445,0.847,1.404,-2.930,-1.404
0.313,-0.468,0.919,-23.621,-4.578,4.700
0.273,-0.453,0.869,-27.405,-7.812,8.789
0.308,-0.468,0.870,-27.832,-4.822,11.841
0.246,-0.405,0.894,-22.156,2.197,13.550
0.237,-0.396,0.871,6.104,-0.549,4.761
0.249,-0.404,0.856,18.982,-3.540,1.038
0.241,-0.404,0.883,12.085,-1.099,2.014
0.237,-0.404,0.887,-1.953,-1.831,2.014
0.277,-0.423,0.870,-5.554,-2.136,1.648
0.260,-0.411,0.888,-6.836,-1.343,1.160
0.287,-0.413,0.871,-4.211,-3.174,1.587
0.252,-0.408,0.869,-3.784,-2.319,3.723
0.253,-0.405,0.883,-3.845,-2.869,0.977
0.270,-0.415,0.880,-1.038,-4.517,1.465
0.239,-0.402,0.904,0.977,-1.038,3.174
0.243,-0.406,0.897,5.615,0.427,0.854
0.258,-0.412,0.871,7.874,-0.305,-0.854
0.261,-0.412,0.885,4.700,-2.686,-0.610
0.250,-0.405,0.871,1.465,-3.235,-0.916
0.268,-0.418,0.875,-3.357,-6.836,-0.732
0.248,-0.410,0.887,-0.549,-7.263,-0.549
0.253,-0.429,0.934,-14.709,-0.854,-0.427
0.259,-0.414,0.851,-7.080,-0.977,1.648
0.239,-0.396,0.916,-15.381,2.686,-0.671
0.268,-0.381,0.855,-2.869,-4.761,0.732
0.238,-0.397,0.895,14.221,-7.690,2.197
0.240,-0.402,0.885,1.709,-5.920,0.061
0.231,-0.412,0.911,-4.822,-6.165,-0.366
0.241,-0.385,0.862,-8.545,-2.319,-1.709
0.235,-0.395,0.865,9.277,-3.113,0.305
0.238,-0.408,0.923,4.028,0.732,0.977
0.265,-0.408,0.896,-9.338,-3.235,2.258
0.226,-0.404,0.878,2.319,-2.747,1.038
0.245,-0.405,0.903,5.615,-3.601,0.000
0.233,-0.407,0.876,4.578,-8.850,1.282
0.211,-0.408,0.874,2.075,-3.967,0.244
0.219,-0.404,0.919,-3.784,0.244,-1.953
0.227,-0.403,0.915,-5.371,-3.235,-2.747
0.232,-0.407,0.901,-7.019,-6.653,-2.075
0.220,-0.403,0.899,-4.883,-9.277,-1.282
0.223,-0.399,0.898,-6.714,-5.615,-1.404
0.212,-0.385,0.885,-15.381,-4.578,-3.967
0.201,-0.391,0.897,-19.226,-7.507,-4.272
0.192,-0.371,0.942,-15.747,-6.714,-4.028
0.191,-0.369,0.928,-4.211,-2.686,-2.197
0.189,-0.369,0.922,-5.371,2.930,-0.916
0.208,-0.372,0.920,-8.362,0.305,-0.183
0.207,-0.354,0.921,-7.812,-4.028,-0.854
0.205,-0.357,0.922,-4.333,-5.737,-0.732
0.196,-0.363,0.918,-7.812,0.427,-1.648
0.193,-0.346,0.921,-2.686,-1.587,0.183
0.193,-0.353,0.921,2.869,-3.784,1.160
0.194,-0.364,0.907,-2.502,-3.418,1.038

0.282,0.076,0.900,-15.503,14.099,7.996
0.278,0.076,0.946,-13.916,-5.615,5.310
0.251,0.088,0.995,-14.709,-10.620,4.211
0.238,0.076,0.980,-18.982,2.319,4.761
0.260,0.155,0.959,-18.860,15.625,9.460
0.310,0.025,0.928,-6.592,10.742,-0.244
0.278,0.133,0.980,-25.330,1.770,5.981
0.271,0.147,0.989,-8.118,2.502,7.568
0.266,0.149,0.978,-9.338,10.254,6.042
0.294,0.151,0.950,-0.854,7.507,7.385
0.296,0.149,0.976,4.517,-0.732,3.357
0.281,0.127,0.967,10.132,-3.540,0.549
0.274,0.112,0.974,6.592,2.136,-1.221
0.280,0.104,0.969,2.625,6.531,-2.258
0.287,0.104,0.988,3.052,7.812,-2.625
0.273,0.105,0.944,0.793,4.639,2.869
0.301,0.139,0.938,0.916,-1.099,4.089
0.300,0.135,0.962,-0.183,-1.648,-0.305
0.300,0.124,0.960,3.845,-4.395,-1.648
0.282,0.115,0.970,2.441,-4.028,-1.099
0.279,0.117,0.965,1.038,-2.075,1.953
0.286,0.133,0.976,4.028,-4.883,4.639
0.292,0.109,0.944,5.737,-3.235,0.305
0.294,0.100,0.968,2.075,-4.456,-2.625
0.267,0.091,0.968,1.587,-5.920,1.648
0.275,0.111,0.947,2.686,-7.080,3.784
0.278,0.121,0.967,2.930,-4.883,0.366
0.266,0.106,0.984,2.502,-1.160,-3.784
0.260,0.091,0.955,1.648,6.714,-5.493
0.281,0.092,0.915,2.563,-1.282,-0.977
0.265,0.084,0.994,3.052,-19.714,3.784
0.251,0.104,0.984,5.981,-12.085,0.549
0.252,0.074,0.977,2.747,-1.099,-1.160
0.246,0.092,0.981,-0.916,5.981,0.549
0.276,0.102,0.952,-1.709,8.301,2.441
0.272,0.108,0.961,0.854,-1.221,2.319
0.259,0.093,0.974,2.563,-9.888,4.517
0.254,0.110,0.977,2.380,-5.066,0.916
0.246,0.088,0.978,2.319,-0.549,-1.770
0.247,0.072,0.977,0.671,1.404,2.014
0.256,0.075,0.964,-0.427,1.526,4.089
0.262,0.098,0.966,-2.319,-1.099,2.136
0.249,0.109,0.990,-0.977,0.122,-0.671
0.250,0.097,0.970,0.244,1.953,2.441
0.263,0.098,0.963,1.343,0.488,1.770
0.265,0.102,0.971,1.953,-1.892,-0.916
0.250,0.088,0.971,1.465,-2.319,-1.831
0.244,0.090,0.980,-0.427,0.916,1.160
0.257,0.093,0.967,-0.610,3.540,0.244
0.259,0.098,0.966,0.732,-1.953,-2.075
0.247,0.083,0.977,-0.061,-2.197,-0.366
0.252,0.085,0.974,-2.014,-0.366,2.014
0.260,0.102,0.971,-0.793,2.441,0.854
0.259,0.107,0.969,-0.671,0.977,-0.488
0.255,0.096,0.969,2.136,-1.465,-0.427
0.248,0.086,0.975,0.549,-0.488,-0.122
0.252,0.088,0.973,-0.793,1.404,0.732
0.258,0.095,0.971,-1.648,3.601,0.366
0.264,0.101,0.963,0.549,1.221,-0.366
0.256,0.093,0.975,1.404,-2.014,-0.732
0.250,0.083,0.973,0.610,-0.671,-0.061
0.253,0.090,0.970,-1.770,1.953,1.770
0.260,0.103,0.970,-2.075,1.587,2.136
0.264,0.119,0.969,0.366,-0.183,-0.305
0.250,0.090,0.973,2.075,-1.770,-1.282
0.253,0.080,0.966,1.038,0.488,-0.122
0.254,0.085,0.974,-2.075,0.305,2.014
0.257,0.092,0.975,-3.784,1.282,2.747
0.261,0.109,0.968,-2.563,1.038,1.282
0.264,0.116,0.969,0.427,0.427,-1.221
0.257,0.094,0.971,0.916,1.343,-1.953
0.259,0.094,0.968,0.488,0.061,-0.366
0.255,0.094,0.970,-0.977,-0.793,0.610
0.259,0.100,0.973,-2.075,0.793,0.549
0.258,0.102,0.970,-1.465,1.831,0.732
0.261,0.105,0.967,-0.549,0.488,0.244
0.260,0.103,0.968,1.526,-2.075,-1.282
0.254,0.094,0.974,-0.122,-0.488,0.000
0.259,0.095,0.968,-0.488,-0.061,0.793
0.260,0.104,0.976,-0.732,0.732,0.732
0.263,0.112,0.968,-0.854,0.793,0.122
0.256,0.101,0.970,-0.122,-0.610,-0.427
0.258,0.095,0.971,0.122,0.854,-0.122
0.258,0.096,0.970,-0.732,0.916,0.427
0.261,0.102,0.970,-1.038,0.671,0.854
0.265,0.112,0.966,-1.038,0.366,0.061
0.256,0.104,0.971,0.122,-1.099,-0.671
0.257,0.098,0.964,-0.305,-0.427,0.244
0.261,0.105,0.967,-2.319,-1.038,0.122
0.254,0.101,0.976,-2.380,-1.526,-0.366
0.255,0.099,0.970,-2.808,0.977,1.404
0.267,0.123,0.967,-1.892,1.343,1.282
0.254,0.109,0.971,1.831,0.000,-1.282
0.256,0.104,0.968,-0.549,0.671,0.061
0.257,0.100,0.962,-1.282,0.610,0.793
0.265,0.111,0.970,-1.404,1.099,0.854
0.263,0.116,0.964,-0.610,-1.221,-0.366
0.253,0.112,0.973,-0.244,-0.732,-0.427
0.255,0.106,0.966,-1.953,1.587,0.671
0.260,0.107,0.970,-2.075,1.709,0.732
0.260,0.106,0.964,-2.563,1.648,1.526
0.261,0.113,0.969,-3.052,1.160,2.380
0.265,0.123,0.962,-2.930,0.977,1.343
0.265,0.124,0.967,-0.183,-1.770,-0.366
0.259,0.120,0.968,-0.671,-2.075,0.183
0.258,0.121,0.971,-1.343,-0.366,0.732
0.261,0.119,0.967,-2.014,1.648,0.549
0.262,0.122,0.966,-1.587,0.916,0.183
0.264,0.123,0.966,-0.671,-0.183,0.366
0.260,0.121,0.967,-0.854,0.427,0.305
0.262,0.121,0.963,-0.427,0.183,0.549
0.262,0.122,0.966,0.183,-1.343,0.244
0.259,0.121,0.966,0.183,-1.892,0.183
0.260,0.126,0.968,0.854,-0.916,0.000
0.257,0.123,0.971,0.671,-1.221,-0.366
0.259,0.121,0.963,0.671,0.061,-0.549
0.257,0.120,0.969,1.099,-1.465,-1.221
0.254,0.115,0.969,0.793,-0.061,-0.610
0.258,0.115,0.965,-0.061,0.122,0.061
0.255,0.119,0.971,-0.427,0.122,0.305
0.262,0.131,0.966,-0.427,1.099,0.061
0.258,0.124,0.960,0.916,-0.671,-1.038
0.259,0.116,0.970,1.587,-0.671,-0.061
0.259,0.114,0.968,0.000,-0.183,0.427
0.257,0.122,0.970,-0.977,0.793,0.183

0.259,0.119,0.966,-0.122,0.183,0.244
0.256,0.119,0.972,0.305,-0.061,0.000
0.259,0.122,0.967,-0.244,0.305,0.244
0.255,0.119,0.967,0.000,0.000,0.000
0.259,0.120,0.969,0.732,-0.610,0.427
0.259,0.119,0.967,0.671,-0.610,-0.549
0.252,0.117,0.970,1.526,-1.587,-0.916
0.253,0.113,0.970,0.793,0.488,-0.671
0.254,0.113,0.968,0.366,-0.183,0.183
0.256,0.116,0.969,-0.183,-0.122,0.977
0.257,0.123,0.966,-0.061,-0.061,0.305
0.255,0.119,0.970,0.916,-0.977,-0.610
0.252,0.114,0.968,0.732,-0.549,0.000
0.256,0.117,0.971,0.183,0.366,0.244
0.255,0.117,0.965,0.305,0.183,-0.183
0.252,0.118,0.971,0.977,-1.282,-0.366
0.253,0.110,0.969,0.305,-0.488,0.122
0.252,0.110,0.970,0.000,0.244,0.427
0.253,0.117,0.972,-0.916,0.793,0.610
0.254,0.121,0.967,-0.793,0.977,0.488
0.258,0.123,0.966,1.221,-0.488,-0.061
0.257,0.115,0.972,1.831,-1.526,-0.610
0.252,0.110,0.972,0.610,-0.793,-0.122
0.248,0.110,0.972,-1.343,1.160,0.366
0.255,0.117,0.967,-1.831,1.770,0.305
0.256,0.121,0.965,0.061,-0.122,-0.305
0.256,0.120,0.973,0.732,-0.916,-0.244
0.251,0.111,0.968,-0.122,0.305,-0.549
0.253,0.115,0.969,-0.366,0.305,0.122
0.256,0.118,0.971,-0.305,-0.183,-0.061
0.255,0.114,0.969,0.000,0.305,-0.122
0.257,0.118,0.970,-0.732,0.488,0.427
0.255,0.118,0.967,-0.183,0.305,0.183
0.254,0.117,0.970,-0.488,-0.244,0.244
0.256,0.121,0.968,0.183,0.122,-0.732
0.254,0.117,0.971,0.732,-0.122,-1.038
0.255,0.114,0.966,0.610,-0.305,-0.305
0.251,0.109,0.971,0.000,-0.183,-0.183
0.255,0.117,0.969,-1.160,0.488,0.977
0.260,0.129,0.970,-0.244,0.061,-0.122
0.252,0.120,0.970,0.549,0.000,-1.038
0.257,0.115,0.965,0.916,-0.122,-0.305
0.257,0.117,0.967,0.610,-1.770,-1.099
0.252,0.109,0.974,0.244,-2.808,-1.343
0.247,0.116,0.972,-0.061,-1.587,-0.183
0.246,0.112,0.972,-0.488,1.770,0.122
0.255,0.119,0.969,-0.427,1.038,0.183
0.256,0.118,0.968,0.366,-0.671,-0.244
0.253,0.117,0.971,0.549,-0.549,0.122
0.250,0.115,0.972,-0.061,0.000,0.122
0.250,0.113,0.970,-1.282,2.014,-0.122
0.258,0.119,0.966,-0.366,1.038,0.183
0.258,0.118,0.967,0.732,-1.038,-0.549
0.253,0.115,0.969,0.427,-1.038,-0.427
0.251,0.115,0.971,0.061,-1.282,-1.099
0.251,0.118,0.969,0.061,-0.610,-0.427
0.255,0.122,0.969,0.549,-1.404,-0.671
0.251,0.115,0.972,0.793,-2.380,-1.160
0.245,0.114,0.973,0.244,-1.221,-0.916
0.247,0.113,0.972,0.244,0.793,-0.305
0.252,0.115,0.967,-0.305,1.465,-0.122
0.252,0.116,0.969,-0.122,-0.427,-0.244
0.249,0.117,0.969,0.610,-1.343,-0.366
0.249,0.112,0.972,0.366,-0.366,-0.183
0.249,0.112,0.971,-0.427,0.854,0.427
0.255,0.121,0.966,-0.366,0.671,0.244
0.246,0.115,0.973,0.610,-1.221,-0.732
0.250,0.118,0.971,0.244,-0.122,0.061
0.247,0.113,0.972,0.488,0.061,-0.061
0.250,0.113,0.972,-0.244,1.038,0.244
0.251,0.112,0.972,-0.244,0.610,0.366
0.250,0.119,0.970,-0.916,0.854,0.244
0.249,0.116,0.971,-0.732,0.854,0.244
0.253,0.119,0.968,-0.244,0.488,-0.244
0.254,0.116,0.969,0.305,-0.061,-0.366
0.253,0.117,0.971,0.854,-0.183,-0.061
0.248,0.116,0.969,0.366,-0.122,-0.549
0.248,0.115,0.972,-0.916,0.549,0.061
0.253,0.117,0.968,-0.549,1.099,0.000
0.254,0.115,0.970,-0.427,1.343,-0.244
0.253,0.115,0.966,0.732,-0.549,-0.122
0.250,0.117,0.974,0.000,0.000,-0.061
0.251,0.118,0.966,-0.244,0.305,0.122
0.255,0.117,0.971,0.427,-0.488,-0.244
0.254,0.116,0.970,0.183,-0.061,-0.183
0.249,0.117,0.971,0.061,-0.549,0.000
0.250,0.116,0.969,0.183,0.305,-0.122
0.253,0.118,0.970,-0.061,0.305,-0.183
0.252,0.113,0.969,0.183,0.305,-0.305
0.251,0.112,0.969,0.549,-0.366,-0.183
0.252,0.116,0.972,-0.366,-0.061,0.000
0.251,0.116,0.969,-0.183,0.061,0.000
0.252,0.117,0.969,-0.183,0.916,0.183
0.254,0.119,0.966,0.061,0.244,0.122
0.253,0.115,0.971,0.427,-0.793,0.061
0.253,0.116,0.971,0.122,-0.122,-0.183
0.251,0.117,0.970,0.122,0.000,-0.366
0.252,0.113,0.970,0.366,0.183,-0.244
0.250,0.114,0.970,-0.183,0.305,0.183
0.251,0.117,0.970,-0.793,0.854,0.549
0.251,0.120,0.968,-1.038,1.099,0.366
0.257,0.121,0.966,0.488,-0.427,-0.244
0.255,0.116,0.971,2.258,-1.587,-0.610
0.250,0.107,0.972,0.366,-0.305,-0.305
0.248,0.115,0.971,-1.282,0.916,0.610
0.253,0.125,0.967,-0.549,0.610,0.183
0.256,0.121,0.971,1.221,-1.221,-0.732
0.251,0.110,0.969,1.465,-1.160,-0.793
0.248,0.107,0.973,0.061,0.122,0.305
0.252,0.114,0.972,-0.610,0.671,0.549
0.255,0.121,0.967,-0.244,0.061,0.122
0.251,0.118,0.971,1.160,-1.282,-0.549
0.248,0.114,0.970,0.916,-0.549,-0.061
0.251,0.115,0.971,0.244,0.122,0.122
0.253,0.117,0.970,0.000,0.061,-0.183
0.248,0.112,0.972,0.366,-0.244,-0.671
0.250,0.113,0.969,0.122,0.244,0.305
0.252,0.115,0.970,0.122,-0.061,0.244
0.252,0.114,0.970,0.610,-0.305,0.061
0.251,0.115,0.971,0.610,-0.610,0.061
0.247,0.112,0.971,0.610,-0.183,-0.061
0.249,0.116,0.970,0.366,-0.305,0.183
0.250,0.115,0.973,0.488,-0.366,0.122
0.250,0.115,0.970,0.977,-0.366,-0.061
0.247,0.108,0.975,0.671,-0.549,-0.244

0.321,0.320,0.831,-24.231,29.358,59.326
0.286,0.336,0.808,-19.165,21.118,52.612
0.280,0.358,0.793,-17.334,20.203,50.842
0.295,0.388,0.789,-19.653,24.048,46.448
0.326,0.455,0.809,-7.812,12.756,34.485
0.301,0.431,0.804,-3.113,4.211,25.879
0.302,0.457,0.843,-6.836,10.315,21.729
0.344,0.452,0.843,-3.662,13.611,18.738
0.354,0.455,0.818,-5.005,12.512,16.602
0.375,0.479,0.846,2.563,3.479,13.489
0.345,0.458,0.848,1.404,6.348,7.141
0.358,0.465,0.837,-2.991,10.803,7.202
0.357,0.481,0.841,-2.136,10.254,4.211
0.372,0.480,0.831,1.587,9.521,0.244
0.358,0.443,0.817,7.812,5.310,-5.371
0.372,0.409,0.812,8.972,3.601,-3.601
0.347,0.353,0.759,9.155,3.601,-4.150
0.351,0.380,0.801,-0.061,-6.104,6.226
0.411,0.490,0.921,-13.672,4.150,15.381
0.376,0.456,0.875,-0.977,3.357,3.113
0.333,0.402,0.809,5.371,-2.075,4.822
0.365,0.436,0.797,-0.610,3.113,10.986
0.388,0.505,0.786,-0.732,4.089,9.949
0.386,0.492,0.800,1.709,-2.747,3.174
0.365,0.462,0.821,-1.526,-3.540,-0.122
0.359,0.449,0.862,-2.502,-0.916,2.808
0.374,0.453,0.852,-1.648,2.075,4.883
0.379,0.462,0.835,-0.183,2.686,2.991
0.361,0.439,0.818,-0.305,2.563,3.235
0.354,0.447,0.824,-0.793,5.310,5.127
0.369,0.444,0.805,1.038,3.906,3.052
0.330,0.444,0.819,-0.977,0.610,6.470
0.353,0.488,0.815,0.977,3.357,7.690
0.358,0.470,0.777,0.366,1.953,5.920
0.368,0.488,0.799,0.000,-1.465,2.258
0.359,0.465,0.806,0.977,-1.587,-0.610
0.350,0.456,0.821,0.000,-1.221,-0.427
0.362,0.460,0.804,0.427,-0.549,2.502
0.375,0.476,0.818,-0.610,-3.174,2.197
0.354,0.454,0.836,0.916,-7.080,-2.319
0.343,0.450,0.851,-1.465,-2.808,-3.174
0.370,0.479,0.840,-1.587,2.319,0.122
0.358,0.468,0.829,-1.587,0.427,-2.502
0.348,0.461,0.824,-1.953,0.122,-2.747
0.360,0.453,0.801,-2.930,0.122,-1.282
0.364,0.477,0.818,-7.568,-2.258,-3.784
0.344,0.471,0.841,-2.136,-1.892,-4.944
0.363,0.482,0.831,-2.502,6.287,-3.906
0.370,0.479,0.772,-3.357,7.690,-5.859
0.362,0.462,0.809,-1.648,-4.150,-8.789
0.344,0.413,0.830,2.625,-6.042,-6.470
0.344,0.405,0.834,0.183,2.136,-0.366
0.362,0.428,0.810,-0.732,4.028,4.272
0.372,0.464,0.793,0.488,2.502,1.953
0.366,0.456,0.802,-0.061,0.183,-0.488
0.359,0.470,0.822,0.916,3.296,1.343
0.359,0.463,0.801,-0.732,7.690,2.625
0.384,0.472,0.786,-3.540,3.784,2.380
0.389,0.485,0.812,-3.052,-2.197,-1.343
0.367,0.467,0.819,-0.183,-1.526,-4.089
0.358,0.449,0.833,-2.075,1.953,-2.075
0.374,0.455,0.816,-4.028,6.409,1.160
0.381,0.481,0.806,-3.662,6.348,1.648
0.389,0.474,0.791,-2.136,4.272,-0.366
0.386,0.489,0.796,-0.854,-2.319,-1.709
0.373,0.466,0.792,1.282,-0.916,-5.493
0.374,0.453,0.790,-0.549,1.343,-4.028
0.380,0.467,0.799,-0.305,-1.343,-1.221
0.381,0.471,0.829,-0.671,-0.366,-1.648
0.378,0.474,0.835,-0.610,2.808,-1.831
0.382,0.472,0.817,0.061,5.554,-0.488
0.390,0.472,0.795,-0.793,7.568,-0.305
0.394,0.476,0.788,-1.160,3.296,0.183
0.389,0.466,0.782,0.488,-1.160,-0.671
0.381,0.463,0.803,-2.014,-0.732,-1.709
0.383,0.458,0.821,-2.625,2.502,-0.183
0.396,0.463,0.801,-0.732,4.639,0.549
0.390,0.469,0.795,0.610,2.808,0.671
0.398,0.476,0.786,-0.366,0.977,0.305
0.394,0.475,0.797,-0.793,1.099,-0.488
0.392,0.469,0.802,0.183,-0.244,-0.854
0.392,0.474,0.808,-1.709,2.686,-0.183
0.396,0.468,0.790,-0.793,3.418,-0.366
0.396,0.471,0.789,-0.610,2.930,-0.671
0.394,0.468,0.791,0.000,1.831,-0.549
0.399,0.470,0.796,-1.282,5.859,-0.183
0.403,0.473,0.788,-1.282,3.906,-0.183
0.405,0.477,0.798,-0.732,3.418,-0.488
0.402,0.474,0.793,-1.038,2.502,-0.305
0.405,0.481,0.787,-0.244,1.709,0.793
0.405,0.476,0.781,0.061,2.258,-0.061
0.406,0.484,0.788,-1.526,1.343,-0.122
0.407,0.479,0.789,-0.488,1.404,-0.244
0.407,0.476,0.792,-1.221,2.319,-1.099
0.406,0.472,0.787,-1.160,3.723,-1.038
0.415,0.475,0.782,-0.061,2.197,-0.305
0.406,0.464,0.776,0.732,0.366,-0.977
0.406,0.468,0.786,0.000,1.221,-1.038
0.411,0.468,0.769,-0.122,2.625,0.366
0.414,0.476,0.768,-0.061,1.160,0.610
0.414,0.476,0.783,-0.854,0.061,-0.183
0.411,0.471,0.802,-1.526,0.549,-0.549
0.413,0.479,0.792,-1.038,3.113,0.122
0.419,0.483,0.777,-0.854,3.174,0.366
0.417,0.481,0.774,-0.366,-0.122,0.000
0.414,0.473,0.768,1.465,-1.282,-0.916
0.412,0.475,0.771,-1.221,0.366,-0.183
0.413,0.476,0.775,-0.732,0.671,-0.427
0.419,0.476,0.780,-0.977,-0.244,-0.488
0.411,0.472,0.798,-0.122,-0.122,-0.244
0.419,0.478,0.792,0.610,1.038,0.488
0.414,0.475,0.780,0.549,0.122,0.732
0.415,0.479,0.773,0.427,0.488,-0.122
0.415,0.482,0.775,-0.977,0.732,0.244
0.417,0.486,0.781,0.122,0.122,-0.305
0.422,0.484,0.778,0.366,-0.610,-0.488
0.411,0.466,0.779,0.732,-1.404,-1.038
0.409,0.469,0.782,-0.427,0.549,-0.305
0.417,0.475,0.776,-0.061,0.549,0.854
0.419,0.480,0.783,-0.061,-0.305,0.000
0.413,0.480,0.789,0.366,-0.366,-0.122
0.415,0.474,0.781,0.183,0.610,-0.061
0.416,0.480,0.781,-0.427,0.366,0.061
0.415,0.482,0.782,-0.061,0.427,0.000
0.417,0.481,0.773,-0.305,2.014,-0.732

0.418,0.476,0.781,0.122,-0.732,-0.061
0.421,0.479,0.782,-0.671,0.610,0.305
0.421,0.477,0.785,-0.061,-0.122,-0.061
0.420,0.488,0.787,0.916,-0.122,0.061
0.419,0.480,0.774,0.244,0.488,-0.305
0.420,0.483,0.771,-0.061,0.000,-0.732
0.417,0.473,0.773,-0.305,-0.122,-0.793
0.420,0.473,0.783,-0.122,-0.122,-0.732
0.420,0.477,0.788,0.732,-0.061,-0.061
0.417,0.472,0.773,0.916,-0.366,-0.427
0.421,0.482,0.777,0.244,0.488,-0.305
0.419,0.471,0.776,-0.183,0.183,-0.793
0.421,0.482,0.791,0.244,0.854,-0.610
0.423,0.478,0.774,1.221,0.793,-0.549
0.421,0.474,0.778,0.610,-0.671,-0.854
0.421,0.475,0.773,-0.061,0.305,-0.854
0.418,0.466,0.769,0.549,0.061,-0.793
0.418,0.469,0.780,-1.038,-0.183,-0.488
0.421,0.466,0.787,0.488,-0.549,-0.122
0.421,0.475,0.785,0.671,0.061,0.305
0.422,0.481,0.775,0.793,0.732,0.122
0.424,0.480,0.775,-0.793,0.183,-0.122
0.421,0.477,0.777,0.244,0.061,-0.793
0.423,0.472,0.780,-0.366,-0.427,-0.488
0.416,0.464,0.781,0.366,-0.793,-0.671
0.420,0.469,0.786,0.366,-0.122,-0.183
0.422,0.473,0.785,-0.610,1.343,0.305
0.421,0.466,0.772,1.404,0.427,0.427
0.421,0.473,0.773,0.000,-0.061,0.427
0.419,0.478,0.778,-0.061,0.183,0.732
0.427,0.492,0.782,0.000,-0.366,0.183
0.424,0.484,0.781,0.122,-0.183,-0.732
0.418,0.471,0.779,-0.183,0.183,-0.854
0.422,0.475,0.782,0.122,0.305,-0.671
0.419,0.465,0.776,0.061,0.000,-0.610
0.420,0.462,0.780,0.366,-0.366,0.061
0.420,0.464,0.774,0.854,-0.366,0.610
0.420,0.475,0.787,-0.732,0.610,0.488
0.422,0.485,0.787,0.610,0.977,0.427
0.424,0.481,0.775,0.427,0.122,0.000
0.425,0.480,0.780,0.122,0.000,-0.610
0.418,0.469,0.780,0.183,-0.061,-0.671
0.421,0.470,0.775,0.244,0.549,-0.183
0.421,0.468,0.772,0.000,0.427,-0.122
0.421,0.471,0.779,-0.732,0.000,-0.244
0.421,0.475,0.782,0.061,-0.122,0.305
0.423,0.478,0.780,0.061,-0.244,0.305
0.423,0.477,0.776,0.061,0.000,-0.427
0.420,0.470,0.781,-0.977,0.183,-0.488
0.420,0.468,0.783,-0.061,0.366,-0.305
0.423,0.473,0.777,0.305,-0.122,0.488
0.421,0.479,0.775,0.244,-0.305,0.305
0.423,0.474,0.779,0.244,-0.305,-0.183
0.418,0.468,0.783,-0.183,0.122,-0.244
0.424,0.481,0.776,0.305,0.244,0.732
0.420,0.477,0.779,-0.305,-0.305,-0.427
0.421,0.476,0.786,-0.122,-0.671,-0.427
0.418,0.475,0.782,0.366,0.427,0.061
0.424,0.478,0.778,-0.916,0.610,-0.488
0.421,0.478,0.779,0.061,-0.305,-0.244
0.421,0.472,0.773,0.549,-0.610,-0.610
0.420,0.468,0.776,-0.488,0.061,-0.122
0.422,0.470,0.779,0.061,-0.061,-0.122
0.417,0.469,0.778,0.305,-0.122,0.122
0.424,0.478,0.782,-0.549,0.183,0.061
0.420,0.477,0.782,-0.061,0.549,0.244
0.425,0.480,0.779,0.732,-0.732,-0.366
0.420,0.472,0.780,0.061,-0.183,-0.488
0.417,0.472,0.780,0.061,0.000,-0.244
0.422,0.476,0.774,-0.366,0.488,-0.061
0.422,0.472,0.774,0.000,0.000,-0.366
0.418,0.469,0.778,-0.122,-0.488,-0.488
0.421,0.476,0.789,-0.488,-0.183,-0.061
0.422,0.474,0.785,-0.488,1.099,-0.122
0.422,0.480,0.775,0.061,0.610,0.244
0.420,0.474,0.771,0.549,0.244,-0.793
0.421,0.471,0.787,-0.549,1.892,-1.648
0.425,0.473,0.779,-0.488,3.784,-1.099
0.423,0.469,0.773,0.488,1.221,-0.366
0.426,0.473,0.771,0.122,0.549,0.122
0.422,0.470,0.774,1.282,-0.610,0.488
0.427,0.477,0.783,-0.488,0.366,0.244
0.428,0.484,0.790,-0.427,1.343,-0.122
0.427,0.481,0.776,0.000,1.282,0.000
0.430,0.483,0.772,0.305,-1.160,-0.061
0.424,0.470,0.776,0.244,-0.671,-0.793
0.424,0.472,0.778,-0.488,0.549,-0.244
0.424,0.462,0.776,0.305,0.122,-0.061
0.427,0.472,0.775,-0.122,0.549,-0.183
0.425,0.474,0.774,0.366,0.427,0.549
0.428,0.478,0.776,-0.244,-0.244,-0.244
0.425,0.479,0.783,0.366,0.000,0.061
0.429,0.478,0.774,0.916,0.122,0.000
0.424,0.471,0.771,0.000,0.183,-0.610
0.426,0.476,0.783,-1.221,0.244,-0.244
0.425,0.468,0.770,0.854,0.061,-0.244
0.425,0.474,0.782,-0.732,-0.244,-0.427
0.426,0.469,0.780,0.183,1.160,-0.122
0.429,0.480,0.774,-0.366,0.732,0.427
0.425,0.479,0.768,0.305,-0.244,-0.244
0.429,0.476,0.772,-0.244,-0.549,-0.427
0.425,0.469,0.785,-0.488,-0.732,-0.916
0.425,0.471,0.787,0.122,-0.061,-0.366
0.427,0.472,0.767,0.916,1.526,0.122
0.427,0.476,0.769,-0.244,0.916,-0.671
0.431,0.478,0.775,-0.549,-0.061,-0.671
0.428,0.472,0.775,0.916,-1.404,-0.671
0.428,0.474,0.785,0.305,0.488,-2.441
0.426,0.477,0.784,-0.977,3.052,-2.258
0.435,0.481,0.775,0.977,3.418,-1.282
0.429,0.467,0.766,0.000,2.136,-1.160
0.434,0.473,0.775,0.549,0.061,-0.366
0.437,0.467,0.766,-0.244,0.610,-1.282
0.425,0.466,0.780,0.854,-1.953,0.183
0.432,0.469,0.783,0.732,1.099,1.099
0.437,0.480,0.772,0.732,-0.427,1.160
0.430,0.477,0.779,0.610,0.000,0.183
0.435,0.479,0.774,-0.183,0.916,-0.122
0.435,0.477,0.769,0.732,-0.732,-0.549
0.430,0.468,0.772,-0.122,-1.038,-1.343
0.427,0.462,0.783,-0.427,-0.671,-0.610
0.432,0.465,0.779,0.305,0.000,0.427
0.429,0.467,0.769,1.038,-0.244,0.122
0.431,0.472,0.765,0.366,0.305,0.244
0.436,0.476,0.775,-0.488,-0.671,0.366

0.427,0.464,0.774,0.977,0.061,-0.305
0.427,0.471,0.771,-0.366,1.160,-0.366
0.426,0.468,0.772,0.183,-0.488,-0.488
0.424,0.462,0.783,0.000,-0.916,-0.366
0.428,0.466,0.778,0.183,-0.061,0.366
0.427,0.472,0.779,-0.061,-0.366,0.122
0.428,0.474,0.785,0.000,-0.671,-0.061
0.427,0.470,0.784,0.305,0.000,0.061
0.424,0.467,0.784,-0.488,0.793,-0.427
0.425,0.467,0.775,0.183,0.549,0.244
0.429,0.471,0.771,-0.488,-0.305,0.610
0.428,0.470,0.767,-0.122,-2.502,-0.244
0.427,0.471,0.780,-0.793,-2.136,0.549
0.428,0.479,0.784,-0.427,-3.540,0.671
0.418,0.466,0.785,1.404,-2.869,-1.160
0.422,0.472,0.789,-1.587,0.427,0.000
0.419,0.463,0.782,0.732,-0.549,0.305
0.424,0.471,0.780,0.854,-2.197,0.549
0.416,0.464,0.766,1.465,-1.709,0.305
0.421,0.469,0.774,-0.610,-1.892,0.244
0.419,0.465,0.788,-0.061,-1.343,0.122
0.416,0.467,0.786,0.366,-1.221,1.099
0.419,0.476,0.789,-0.183,-1.404,2.014
0.420,0.482,0.790,0.061,-1.587,1.465
0.416,0.478,0.771,1.160,-2.441,0.549
0.413,0.476,0.778,-0.244,-2.502,-0.122
0.413,0.468,0.789,-0.244,-2.441,-0.305
0.409,0.459,0.794,1.038,-2.991,0.610
0.410,0.462,0.796,0.549,-0.793,0.671
0.412,0.473,0.786,0.671,0.366,0.366
0.412,0.474,0.775,2.686,-1.892,0.854
0.406,0.474,0.784,0.854,-2.380,0.244
0.407,0.473,0.789,-0.549,-0.122,0.183
0.410,0.477,0.796,-0.305,-0.916,0.122
0.409,0.472,0.799,0.183,-0.427,-0.671
0.407,0.464,0.788,0.183,0.427,-0.305
0.406,0.463,0.786,0.122,-0.549,0.244
0.404,0.466,0.791,0.305,-0.732,0.549
0.411,0.476,0.782,0.244,0.854,0.488
0.409,0.478,0.781,-0.305,-0.793,-0.122
0.405,0.471,0.793,-0.061,-1.099,-0.854
0.405,0.467,0.796,-0.549,0.427,0.061
0.408,0.469,0.794,-0.183,0.610,0.244
0.407,0.468,0.782,0.244,0.183,0.061
0.406,0.469,0.781,-0.061,-0.183,0.366
0.408,0.469,0.785,-0.183,-0.427,0.366
0.407,0.473,0.792,-0.427,-0.244,0.122
0.406,0.473,0.790,0.183,0.000,0.183
0.407,0.475,0.784,0.000,0.183,0.183
0.408,0.472,0.787,-0.244,-0.183,-0.183
0.406,0.470,0.793,0.000,-0.305,-0.366
0.405,0.468,0.791,0.183,0.061,-0.061
0.407,0.469,0.779,0.427,0.427,0.244
0.405,0.469,0.784,0.000,-0.366,0.183
0.406,0.472,0.795,-0.061,-0.610,0.305
0.408,0.477,0.792,0.061,0.549,0.427
0.406,0.474,0.790,0.000,-0.122,0.122
0.406,0.470,0.788,0.366,0.183,-0.122
0.404,0.470,0.782,0.122,0.366,0.244
0.406,0.472,0.782,-0.122,-0.061,0.122
0.405,0.470,0.794,-0.610,-0.183,-0.122
0.404,0.470,0.793,0.305,0.244,0.366
0.407,0.473,0.788,0.122,0.305,0.671
0.406,0.475,0.788,-0.305,0.916,0.244
0.407,0.475,0.789,0.000,0.305,-0.305
0.407,0.473,0.793,0.427,-0.183,-0.244
0.405,0.473,0.784,0.549,-0.549,-0.061
0.404,0.472,0.788,-0.061,0.000,-0.061
0.407,0.472,0.785,0.977,-0.366,-0.183
0.402,0.465,0.786,0.183,-0.671,0.000
0.407,0.474,0.798,-0.488,0.244,0.122
0.407,0.474,0.792,0.671,0.427,0.305
0.404,0.475,0.787,0.305,0.183,-0.183
0.405,0.476,0.784,-0.244,0.793,0.061
0.406,0.473,0.777,0.427,0.061,-0.305
0.405,0.469,0.792,-0.061,-1.404,-0.793
0.405,0.469,0.797,0.122,0.000,-0.427
0.405,0.470,0.790,0.488,0.244,0.061
0.406,0.472,0.788,0.244,-0.183,-0.122
0.405,0.470,0.782,0.793,-0.305,0.061
0.405,0.476,0.793,0.061,-0.366,-0.183
0.406,0.476,0.794,0.000,0.671,-0.610
0.402,0.467,0.785,1.099,0.916,-0.977
0.409,0.477,0.792,-0.732,0.671,-0.793
0.403,0.465,0.791,-0.183,1.282,-1.343
0.411,0.469,0.784,0.854,1.831,-1.526
0.406,0.466,0.786,-1.648,2.014,-1.221
0.415,0.468,0.788,-0.061,1.892,-0.977
0.407,0.461,0.786,-0.366,0.671,0.244
0.412,0.472,0.793,0.549,0.488,-0.610
0.409,0.471,0.783,-1.099,1.892,0.061
0.413,0.470,0.781,0.977,0.366,-0.305
0.411,0.471,0.785,-0.916,0.244,-0.366
0.411,0.470,0.785,0.122,0.793,-0.122
0.415,0.472,0.785,-0.244,-0.183,-0.061
0.412,0.474,0.797,-0.366,0.183,-0.549
0.413,0.473,0.792,-0.305,0.977,-0.122
0.417,0.477,0.780,0.610,0.732,-0.854
0.413,0.474,0.782,-0.427,-0.061,-1.343
0.410,0.469,0.781,0.366,0.122,-1.160
0.415,0.461,0.786,-0.305,0.610,-1.038
0.415,0.462,0.794,-0.549,0.366,-1.587
0.412,0.467,0.782,1.587,0.916,-1.160
0.415,0.469,0.780,0.488,0.671,-0.244
0.418,0.474,0.789,-0.549,0.610,-0.854
0.419,0.477,0.793,0.183,-0.183,-0.977
0.411,0.476,0.790,1.648,-1.404,-1.160
0.422,0.463,0.781,5.066,-5.127,-0.183
0.409,0.453,0.782,4.517,-5.737,-1.221
0.407,0.460,0.791,1.465,-3.845,-0.305
0.411,0.456,0.788,2.380,-2.380,0.732
0.410,0.466,0.800,-1.282,-0.122,-0.488
0.409,0.463,0.801,2.075,-1.343,-0.061
0.408,0.466,0.785,6.104,-5.554,0.427
0.406,0.463,0.794,3.723,-4.639,-0.671
0.402,0.458,0.796,2.808,-4.700,-0.610
0.404,0.461,0.795,4.517,-4.761,-0.549
0.407,0.466,0.787,1.465,-7.690,-2.686
0.400,0.458,0.802,3.723,-9.155,-5.066
0.386,0.432,0.810,0.061,-8.972,-3.418
0.382,0.437,0.831,-1.343,-2.991,-1.587
0.390,0.450,0.814,1.099,-2.075,0.305
0.404,0.465,0.791,-0.549,-2.747,-2.747
0.419,0.500,0.779,-6.653,-4.700,-10.986
0.380,0.452,0.796,-10.925,-9.338,-14.832

0.161,0.576,0.390,124.573,14.343,-52.368
0.884,0.034,1.516,185.913,115.356,-105.469
0.448,0.317,0.701,-19.653,3.174,1.221
0.470,0.327,0.842,-5.127,-23.437,20.935
0.459,0.289,0.930,-27.649,-13.916,10.437
0.445,0.298,0.836,1.526,13.794,5.737
0.390,0.383,0.819,-20.325,-12.512,2.441
0.575,0.245,0.882,33.508,-38.391,29.175
0.234,0.281,0.857,74.036,-66.772,34.546
0.494,0.273,0.771,99.365,-42.847,0.610
0.385,0.282,1.073,-10.681,-35.156,-18.860
0.345,0.300,0.919,47.302,12.573,18.982
0.525,0.217,0.677,16.541,4.150,16.479
0.281,0.175,1.031,15.320,-9.644,-11.047
0.361,0.236,0.863,22.461,-2.502,-29.785
0.399,0.187,0.865,0.977,-10.559,-15.991
0.405,0.233,0.945,-17.944,12.085,-19.958
0.327,0.207,0.874,3.296,1.587,-22.766
0.401,0.166,1.001,-0.549,-1.343,1.953
0.398,0.219,0.888,10.620,17.456,-1.648
0.416,0.223,0.921,3.723,13.367,-9.094
0.395,0.175,0.918,9.949,-3.601,-9.094
0.371,0.152,0.924,9.949,-5.310,-5.310
0.405,0.176,0.914,9.399,0.488,-5.432
0.388,0.171,0.900,2.563,2.930,-4.944
0.380,0.143,0.908,5.798,-0.061,-3.052
0.404,0.170,0.904,9.766,-2.258,-1.892
0.397,0.172,0.893,7.385,-2.014,-3.601
0.384,0.151,0.940,0.244,-6.531,-5.066
0.383,0.135,0.918,5.798,-3.174,0.366
0.388,0.156,0.916,5.310,0.427,3.540
0.400,0.167,0.908,3.235,1.648,0.366
0.391,0.151,0.908,-2.991,0.549,-2.258
0.383,0.150,0.924,-5.249,2.197,-1.831
0.390,0.135,0.923,1.770,2.014,1.404
0.400,0.158,0.920,4.517,-2.747,0.854
0.394,0.164,0.911,1.648,-2.075,-2.014
0.387,0.154,0.918,-0.427,-0.244,-1.709
0.387,0.143,0.923,3.113,-2.808,-0.977
0.392,0.143,0.919,3.479,-2.869,0.488
0.396,0.153,0.927,0.488,-0.488,-1.526
0.378,0.130,0.918,0.305,-1.465,-1.038
0.383,0.146,0.913,1.953,-1.770,0.671
0.390,0.154,0.908,-0.916,-0.488,0.061
0.394,0.156,0.924,0.427,-1.160,-2.747
0.386,0.141,0.938,1.343,-1.953,-3.235
0.378,0.146,0.925,3.479,-1.099,-1.038
0.392,0.153,0.923,0.000,2.014,-0.549
0.385,0.134,0.915,2.075,1.648,-1.648
0.385,0.132,0.921,1.770,1.526,-0.488
0.376,0.128,0.910,4.028,-0.488,-0.183
0.384,0.134,0.907,1.221,-2.625,1.343
0.393,0.148,0.925,-0.549,-0.305,0.122
0.387,0.133,0.942,1.343,3.540,0.000
0.387,0.143,0.920,8.362,2.380,-2.808
0.398,0.154,0.925,4.883,0.366,-3.479
0.371,0.111,0.891,2.502,-0.732,-4.150
0.384,0.124,0.923,-5.737,3.723,2.075
0.407,0.141,0.934,1.038,2.686,2.136
0.392,0.125,0.916,0.427,1.648,-3.052
0.381,0.109,0.925,1.648,0.488,-4.333
0.379,0.112,0.905,7.202,1.953,-0.610
0.397,0.130,0.912,8.484,0.183,1.343
0.414,0.134,0.932,4.578,1.953,-1.831
0.390,0.115,0.930,1.892,5.066,-1.770
0.401,0.125,0.934,5.127,4.150,-1.038
0.402,0.121,0.924,7.263,5.615,-2.625
0.400,0.110,0.906,2.075,0.000,-1.953
0.404,0.109,0.923,2.502,-0.549,-0.305
0.406,0.107,0.921,2.380,0.122,-1.343
0.398,0.095,0.918,0.366,-1.953,-0.854
0.396,0.111,0.919,-0.305,-1.099,1.831
0.406,0.114,0.921,-1.892,1.770,1.465
0.408,0.113,0.933,2.747,-1.404,-1.465
0.398,0.110,0.912,2.991,-0.671,-2.930
0.392,0.108,0.916,-0.305,-1.587,-0.671
0.405,0.107,0.926,-1.404,-2.625,0.366
0.403,0.104,0.920,-0.244,-0.610,-1.343
0.393,0.104,0.914,-0.122,-0.549,-3.174
0.393,0.101,0.914,0.427,-1.587,-0.305
0.396,0.101,0.919,0.000,-1.221,0.732
0.398,0.102,0.921,-1.038,-1.343,-0.427
0.394,0.106,0.924,-2.197,-1.099,-0.366
0.398,0.105,0.921,-0.183,-2.258,0.427
0.397,0.107,0.923,0.671,-0.793,-0.549
0.395,0.114,0.916,1.526,-2.319,-0.916
0.387,0.104,0.915,-1.160,-2.380,-0.854
0.390,0.100,0.928,-1.343,0.305,-0.244
0.396,0.102,0.932,1.282,-0.183,0.977
0.393,0.108,0.922,2.136,-0.488,-0.244
0.392,0.111,0.918,-0.061,0.793,0.061
0.393,0.108,0.918,0.916,0.732,0.244
0.393,0.104,0.921,2.380,-0.305,-0.916
0.385,0.097,0.920,1.648,-0.305,0.000
0.393,0.103,0.927,0.122,0.610,1.709
0.397,0.100,0.925,1.465,2.014,0.366
0.393,0.099,0.919,5.127,3.052,-1.282
0.392,0.099,0.917,10.559,3.479,-1.770
0.389,0.095,0.913,6.226,1.282,-1.343
0.410,0.100,0.947,1.343,0.244,0.671
0.404,0.099,0.931,1.282,1.526,-0.916
0.395,0.095,0.923,-0.183,0.916,-1.099
0.395,0.089,0.911,-0.366,1.282,0.183
0.399,0.082,0.918,-1.038,0.732,0.549
0.400,0.081,0.921,1.343,0.122,-0.427
0.394,0.087,0.916,-0.244,-1.038,-0.916
0.396,0.089,0.924,-0.366,-0.732,0.732
0.402,0.092,0.932,-1.953,-0.122,0.916
0.402,0.100,0.936,-0.061,-3.906,-1.526
0.397,0.096,0.932,1.831,-7.202,-4.944
0.384,0.095,0.914,2.686,-10.986,-7.568
0.382,0.088,0.917,-0.793,-6.042,-4.150
0.382,0.080,0.932,-0.061,0.977,-0.610
0.390,0.089,0.929,0.488,2.441,1.343
0.389,0.092,0.924,-1.831,1.465,-0.183
0.388,0.086,0.928,0.977,2.380,-1.099
0.388,0.086,0.928,-0.427,-0.671,-0.366
0.393,0.089,0.927,1.831,1.526,-0.793
0.385,0.084,0.926,-0.061,2.014,-0.732
0.386,0.083,0.923,0.000,1.648,1.343
0.389,0.081,0.921,0.061,1.953,1.770
0.394,0.079,0.929,0.671,-0.549,0.854
0.392,0.091,0.918,0.427,-1.282,-0.488
0.387,0.088,0.922,-2.197,-0.671,-0.183
0.392,0.087,0.929,-1.038,-0.854,1.160

0.383,0.088,0.934,0.488,-2.075,0.000
0.377,0.080,0.922,0.793,-0.122,-0.427
0.379,0.084,0.924,-1.038,0.488,0.732
0.387,0.094,0.931,0.122,-1.038,1.160
0.385,0.089,0.935,-1.099,-0.793,-0.732
0.376,0.079,0.934,0.061,-1.404,-0.977
0.376,0.085,0.938,-0.549,-0.122,1.038
0.386,0.088,0.932,0.488,2.136,2.319
0.379,0.092,0.913,-0.305,1.526,0.244
0.379,0.086,0.925,-0.183,0.854,0.305
0.385,0.088,0.928,-0.549,-1.404,0.671
0.386,0.091,0.944,-1.099,-3.296,-0.977
0.377,0.087,0.934,1.038,-0.977,-1.282
0.376,0.090,0.932,-0.854,1.099,0.427
0.382,0.090,0.932,-0.183,0.183,0.488
0.380,0.088,0.922,0.793,-1.099,-0.671
0.378,0.086,0.921,-0.732,-0.366,-0.427
0.374,0.084,0.928,0.000,0.122,0.427
0.382,0.091,0.934,-0.122,-1.770,-0.183
0.381,0.092,0.938,-0.122,-0.122,-0.671
0.377,0.091,0.937,-0.061,0.488,0.183
0.378,0.096,0.926,-0.244,-1.099,0.305
0.380,0.090,0.933,-0.366,-0.854,-1.221
0.375,0.082,0.928,0.061,0.122,-1.099
0.374,0.084,0.922,0.366,0.183,-0.610
0.377,0.085,0.932,1.038,-0.916,-0.122
0.379,0.086,0.932,1.221,-0.977,-0.244
0.374,0.087,0.931,1.099,-0.427,-0.549
0.376,0.089,0.936,0.183,-0.366,0.366
0.377,0.089,0.934,0.183,-0.061,1.038
0.378,0.089,0.937,1.038,0.122,0.427
0.377,0.091,0.933,0.671,0.000,-0.488
0.378,0.091,0.931,0.366,0.671,-0.793
0.374,0.081,0.937,0.488,-0.122,-1.099
0.376,0.087,0.936,0.854,-0.488,-0.366
0.378,0.090,0.925,0.427,1.221,0.183
0.378,0.088,0.933,-0.610,0.305,-0.366
0.380,0.090,0.931,-0.427,-0.122,-0.366
0.372,0.085,0.930,-0.732,-0.305,-0.610
0.374,0.083,0.933,0.000,-1.099,0.000
0.374,0.088,0.918,-0.061,-0.610,0.000
0.381,0.085,0.934,0.183,0.061,-0.366
0.370,0.073,0.926,1.465,0.061,-1.099
0.374,0.081,0.948,1.160,-0.793,0.427
0.381,0.088,0.941,2.686,-0.732,0.305
0.376,0.091,0.929,-1.038,0.610,0.122
0.373,0.093,0.930,0.977,0.549,0.366
0.385,0.092,0.937,-0.793,0.610,-0.671
0.371,0.078,0.935,1.587,-0.427,-2.197
0.375,0.079,0.935,1.892,0.183,-0.366
0.371,0.075,0.920,-1.343,0.610,0.977
0.377,0.083,0.932,0.122,-0.916,0.549
0.376,0.088,0.936,-0.427,-0.488,0.061
0.373,0.089,0.937,0.610,0.488,0.793
0.384,0.094,0.937,-0.122,0.366,0.610
0.379,0.095,0.934,0.122,0.488,-0.854
0.374,0.084,0.926,0.854,0.183,-1.160
0.373,0.083,0.933,-1.709,-0.122,-0.183
0.376,0.073,0.935,-0.549,0.061,-0.305
0.374,0.075,0.929,0.977,-0.061,-0.305
0.375,0.084,0.922,0.366,0.183,0.244
0.377,0.087,0.932,-0.244,-0.061,0.488
0.380,0.088,0.940,-0.488,-0.061,0.305
0.375,0.087,0.943,-1.343,-0.366,0.183
0.378,0.086,0.935,0.488,0.122,-0.305
0.374,0.083,0.931,0.549,0.793,-0.977
0.376,0.085,0.924,1.038,-0.366,-0.183
0.374,0.082,0.919,0.610,-0.427,-0.427
0.374,0.078,0.935,-0.427,0.549,0.122
0.376,0.081,0.941,-0.488,-1.404,0.549
0.376,0.091,0.937,0.305,-0.244,0.061
0.378,0.094,0.935,0.549,0.549,0.366
0.376,0.089,0.927,1.099,0.610,-0.488
0.373,0.085,0.933,0.549,-0.671,-0.305
0.374,0.078,0.937,-0.427,-0.549,0.061
0.377,0.088,0.931,-0.549,0.000,-0.122
0.375,0.083,0.931,0.610,0.183,-0.916
0.368,0.074,0.929,-0.366,0.366,0.366
0.379,0.082,0.943,0.488,0.732,1.282
0.378,0.090,0.930,0.977,-0.488,0.000
0.375,0.088,0.934,0.854,-0.183,-0.671
0.374,0.087,0.930,0.183,0.549,0.061
0.377,0.085,0.930,0.366,0.488,-0.061
0.372,0.082,0.928,0.244,0.122,-0.244
0.381,0.086,0.938,-0.732,-0.061,0.122
0.377,0.081,0.937,0.000,1.038,-0.732
0.373,0.085,0.928,0.854,-0.122,-0.488
0.377,0.085,0.927,0.488,0.854,0.183
0.377,0.082,0.936,-1.099,1.465,0.366
0.377,0.080,0.936,1.038,2.014,0.305
0.374,0.083,0.927,0.916,-0.854,-0.488
0.380,0.082,0.938,-1.099,-0.488,0.488
0.373,0.079,0.928,1.465,0.732,0.610
0.384,0.083,0.935,0.977,-0.305,0.549
0.376,0.088,0.930,-0.366,0.854,-0.183
0.383,0.091,0.947,-0.610,-0.366,0.122
0.379,0.090,0.928,0.671,0.732,-0.427
0.378,0.088,0.924,0.305,0.732,-0.305
0.379,0.081,0.930,0.061,0.366,-0.977
0.378,0.074,0.941,-0.305,0.549,-1.160
0.374,0.072,0.923,0.854,-0.061,-0.732
0.379,0.079,0.926,0.854,0.916,0.122
0.373,0.073,0.929,1.099,1.099,0.732
0.383,0.085,0.936,0.549,0.916,1.160
0.382,0.087,0.930,-0.122,0.183,0.244
0.386,0.093,0.932,-0.732,-0.916,-0.427
0.379,0.077,0.940,-0.366,0.793,-1.221
0.377,0.082,0.932,0.305,-0.122,0.305
0.379,0.078,0.928,0.244,-0.061,0.305
0.383,0.081,0.930,0.366,0.183,-0.366
0.375,0.078,0.927,-1.099,0.793,0.183
0.379,0.086,0.929,0.061,-1.953,0.366
0.385,0.087,0.932,0.305,-0.488,-0.061
0.375,0.075,0.936,-0.732,0.671,-0.549
0.379,0.083,0.935,-0.549,0.305,1.099
0.381,0.085,0.932,0.000,1.099,0.244
0.381,0.087,0.936,0.122,-0.549,-0.671
0.375,0.079,0.923,-0.549,0.549,-0.977
0.379,0.080,0.934,-1.099,0.183,0.549
0.383,0.089,0.922,1.343,0.610,0.793
0.381,0.089,0.933,-1.404,0.610,-0.305
0.383,0.090,0.928,-0.427,0.488,-0.427
0.379,0.086,0.923,0.122,0.305,-0.793
0.379,0.078,0.935,-0.977,-0.305,-1.160
0.379,0.076,0.940,-0.793,0.610,0.244

0.284,0.069,0.940,29.480,1.587,-7.507
0.301,0.117,0.860,53.955,-7.629,-1.587
0.224,0.075,0.883,142.883,-5.127,-13.916
0.356,-0.332,1.520,90.332,-35.095,-13.977
0.182,-0.062,0.840,17.883,-11.047,-6.470
0.309,-0.127,1.007,8.545,7.629,-21.423
0.286,-0.080,0.958,1.892,9.644,-5.249
0.268,-0.083,0.981,1.892,0.427,1.282
0.269,-0.124,0.974,2.136,4.150,-1.404
0.260,-0.113,0.971,7.324,2.686,4.822
0.273,-0.110,1.005,9.094,8.179,8.850
0.294,-0.101,0.945,15.198,22.034,4.028
0.289,-0.123,0.952,15.503,7.324,-0.183
0.293,-0.134,0.938,10.071,6.165,0.000
0.299,-0.134,0.921,5.859,-1.892,3.235
0.293,-0.112,0.974,-2.502,-2.380,2.075
0.288,-0.130,0.960,-1.526,2.014,-4.822
0.284,-0.134,0.947,-0.488,0.305,-3.357
0.292,-0.122,0.969,-1.648,-1.953,-1.404
0.300,-0.130,0.965,-0.061,1.404,-4.822
0.289,-0.138,0.950,1.648,3.723,-9.338
0.274,-0.137,0.956,-0.549,0.610,-5.371
0.285,-0.134,0.967,1.038,-0.427,0.671
0.293,-0.131,0.959,2.747,2.441,-0.977
0.293,-0.135,0.957,1.648,0.916,-0.854
0.297,-0.138,0.961,3.052,1.892,-3.113
0.282,-0.142,0.949,1.587,1.404,-1.099
0.297,-0.133,0.959,0.793,1.526,-0.366
0.286,-0.148,0.947,0.427,0.366,-1.038
0.296,-0.135,0.958,-0.244,-1.343,1.282
0.297,-0.133,0.962,1.526,1.770,-2.563
0.288,-0.138,0.958,1.770,1.404,-2.197
0.291,-0.148,0.950,1.038,0.244,-0.549
0.291,-0.144,0.955,0.977,-0.854,2.014
0.302,-0.138,0.963,1.343,0.305,2.319
0.299,-0.142,0.956,2.441,2.197,-1.953
0.293,-0.146,0.950,3.113,1.953,-2.563
0.296,-0.143,0.954,1.770,1.160,-0.977
0.283,-0.152,0.942,-0.244,1.221,-0.183
0.303,-0.144,0.958,-0.366,-1.465,2.625
0.296,-0.137,0.956,0.122,-0.854,0.244
0.301,-0.149,0.958,0.244,0.244,-1.892
0.300,-0.157,0.949,1.465,2.197,-2.808
0.289,-0.141,0.948,0.793,0.793,-1.709
0.294,-0.148,0.953,-1.160,-0.732,-0.061
0.294,-0.141,0.951,-1.343,-1.465,1.038
0.298,-0.149,0.955,-3.113,-1.343,0.183
0.294,-0.149,0.961,-1.221,-0.305,0.366
0.289,-0.141,0.953,0.916,0.122,2.319
0.298,-0.140,0.955,0.671,0.671,2.808
0.299,-0.141,0.950,-0.061,-0.061,0.122
0.295,-0.144,0.954,-0.671,-0.122,0.000
0.292,-0.144,0.958,1.160,0.122,0.549
0.299,-0.143,0.954,1.404,0.671,0.488
0.297,-0.145,0.951,-0.244,0.122,-0.793
0.295,-0.145,0.955,-0.549,-0.671,0.305
0.298,-0.140,0.958,0.854,0.610,-0.977
0.288,-0.139,0.948,-1.038,-0.122,-0.977
0.298,-0.147,0.958,-1.160,-1.099,1.221
0.296,-0.140,0.960,0.977,0.793,-0.671
0.293,-0.145,0.952,2.075,1.892,-0.854
0.297,-0.148,0.947,0.610,0.488,0.183
0.289,-0.136,0.953,-1.526,-1.526,1.343
0.306,-0.150,0.961,-1.831,-1.587,1.404
0.294,-0.140,0.954,0.732,0.732,-0.488
0.293,-0.144,0.954,0.122,0.305,0.366
0.300,-0.139,0.959,1.282,0.488,0.427
0.295,-0.146,0.953,1.831,1.099,-1.343
0.298,-0.144,0.957,2.014,1.404,-0.916
0.292,-0.156,0.942,1.953,2.930,-3.357
0.295,-0.146,0.951,-0.671,-0.671,1.099
0.306,-0.141,0.956,-1.587,-1.770,0.488
0.293,-0.144,0.951,-1.587,-0.916,-1.404
0.296,-0.150,0.960,-1.160,-0.732,0.183
0.297,-0.142,0.958,0.854,0.732,0.305
0.297,-0.144,0.953,1.587,1.343,0.183
0.300,-0.145,0.948,0.916,0.549,-0.244
0.298,-0.145,0.949,-0.488,-0.549,-0.549
0.294,-0.147,0.955,-0.854,-0.793,-0.305
0.298,-0.142,0.959,0.183,0.671,-0.916
0.293,-0.150,0.949,0.610,0.854,-0.793
0.298,-0.146,0.950,-0.488,-0.854,0.671
0.299,-0.142,0.956,-0.488,-0.549,-0.549
0.297,-0.143,0.958,0.610,0.610,-1.404
0.291,-0.146,0.955,0.854,1.160,-0.793
0.296,-0.149,0.950,1.343,0.671,1.099
0.299,-0.147,0.952,-0.061,-0.183,1.038
0.300,-0.146,0.953,-0.305,0.000,-0.061
0.297,-0.146,0.954,-0.732,-0.549,-0.061
0.297,-0.144,0.953,-0.793,-0.854,0.305
0.297,-0.143,0.958,-0.488,-0.549,0.305
0.299,-0.143,0.956,0.732,0.610,-0.366
0.295,-0.147,0.950,0.977,0.366,-0.610
0.297,-0.146,0.953,-0.305,-0.305,-0.366
0.294,-0.145,0.953,-0.854,-0.549,-0.061
0.299,-0.148,0.958,-1.160,-0.671,0.305
0.296,-0.145,0.953,0.366,0.183,-0.061
0.296,-0.144,0.953,-0.732,-0.549,0.427
0.298,-0.142,0.957,-1.038,0.000,0.061
0.294,-0.138,0.960,0.244,0.488,-0.916
0.299,-0.157,0.953,-0.427,1.465,-2.625
0.295,-0.146,0.953,2.319,0.427,0.366
0.299,-0.143,0.953,1.526,0.610,0.000
0.298,-0.148,0.948,0.549,0.000,-0.061
0.298,-0.146,0.950,-1.160,-1.160,0.061
0.297,-0.143,0.956,-1.465,-1.465,-0.305
0.294,-0.144,0.959,-0.671,-0.610,-0.305
0.295,-0.144,0.955,-0.183,0.000,0.122
0.297,-0.144,0.954,0.122,0.122,0.000
0.296,-0.146,0.954,-0.183,-0.488,0.000
0.295,-0.143,0.957,-0.183,-0.183,0.122
0.295,-0.143,0.958,1.160,0.854,0.427
0.297,-0.142,0.955,1.770,1.526,0.061
0.296,-0.149,0.945,1.221,1.099,-0.122
0.295,-0.146,0.955,-0.549,-0.610,0.244
0.295,-0.145,0.957,0.061,0.061,0.305
0.298,-0.146,0.950,0.183,0.183,0.488
0.298,-0.143,0.952,-0.854,-0.671,0.244
0.295,-0.144,0.956,-1.038,-0.854,-0.061
0.294,-0.143,0.959,-0.244,-0.244,-0.061
0.295,-0.145,0.954,1.038,0.671,-0.244
0.296,-0.146,0.950,0.732,0.366,-0.244
0.297,-0.145,0.953,-0.244,-0.244,-0.427
0.294,-0.145,0.956,-0.549,-0.305,-0.183
0.296,-0.148,0.953,-0.183,-0.244,0.305

0.296,-0.152,0.955,2.747,1.648,-0.061
0.297,-0.145,0.959,5.005,2.380,0.366
0.302,-0.153,0.938,1.709,0.671,-0.061
0.299,-0.154,0.953,-1.038,-0.977,0.122
0.296,-0.150,0.963,1.587,0.916,0.244
0.299,-0.155,0.951,3.174,1.953,0.000
0.301,-0.155,0.947,1.770,1.221,0.000
0.302,-0.157,0.947,0.977,0.305,0.061
0.301,-0.152,0.955,0.610,0.061,-0.061
0.300,-0.157,0.954,1.526,0.977,-0.610
0.300,-0.162,0.952,3.662,0.916,0.977
0.302,-0.156,0.954,6.653,1.892,1.221
0.306,-0.161,0.939,3.296,1.343,0.549
0.305,-0.161,0.948,0.366,0.305,-0.122
0.304,-0.164,0.941,-0.122,-0.122,-0.610
0.302,-0.161,0.955,-1.953,-1.160,-0.122
0.301,-0.159,0.953,0.183,0.305,0.000
0.304,-0.161,0.946,1.099,0.671,-0.061
0.305,-0.156,0.952,0.244,0.183,-0.549
0.304,-0.167,0.946,0.488,0.244,-1.526
0.300,-0.166,0.945,-0.488,0.000,-1.099
0.303,-0.161,0.948,-1.587,-1.099,0.488
0.303,-0.158,0.953,-1.587,-1.160,0.244
0.300,-0.158,0.953,-0.488,-0.610,-0.305
0.301,-0.160,0.954,0.366,-0.122,-0.244
0.302,-0.161,0.949,0.732,0.793,-0.305
0.302,-0.162,0.945,0.427,0.427,0.061
0.302,-0.159,0.949,-0.854,-0.610,0.000
0.302,-0.160,0.954,0.244,0.061,-0.061
0.302,-0.159,0.951,1.160,0.916,-0.244
0.303,-0.161,0.944,-0.305,-0.244,-0.244
0.302,-0.161,0.950,-0.854,-0.610,-0.366
0.302,-0.161,0.949,-0.671,-0.427,0.122
0.302,-0.159,0.950,-0.549,-0.427,0.122
0.301,-0.156,0.950,-0.549,-0.061,-0.244
0.301,-0.151,0.953,0.061,0.305,-0.854
0.305,-0.163,0.950,0.610,0.671,-0.854
0.303,-0.165,0.942,0.061,-0.427,-0.183
0.300,-0.161,0.949,-1.648,-1.343,-0.183
0.299,-0.158,0.956,-2.075,-1.160,0.549
0.301,-0.156,0.952,0.061,-0.183,1.099
0.301,-0.157,0.949,-0.671,-0.427,0.061
0.300,-0.156,0.955,0.000,-0.427,-0.305
0.299,-0.158,0.952,0.977,0.793,-0.427
0.301,-0.160,0.949,1.282,0.977,0.305
0.304,-0.155,0.946,0.427,0.366,0.305
0.301,-0.159,0.949,-0.916,-0.793,-0.549
0.299,-0.157,0.953,-1.160,-0.854,-0.427
0.300,-0.156,0.954,0.061,-0.061,0.305
0.301,-0.157,0.947,0.244,0.061,0.427
0.299,-0.154,0.954,-0.427,-0.549,0.244
0.300,-0.156,0.954,0.610,0.427,-0.366
0.301,-0.160,0.949,1.343,1.160,-0.366
0.301,-0.159,0.948,0.916,0.549,0.244
0.301,-0.158,0.950,-0.183,0.244,0.671
0.302,-0.155,0.954,1.038,0.793,0.488
0.302,-0.156,0.951,1.282,1.221,-0.610
0.303,-0.160,0.945,0.977,0.610,-0.427
0.303,-0.159,0.948,-0.305,-0.061,-0.366
0.302,-0.161,0.947,-1.038,-0.732,-0.122
0.301,-0.159,0.951,-1.160,-0.854,0.305
0.301,-0.157,0.952,-0.427,-0.427,0.244
0.302,-0.156,0.953,0.305,0.244,-0.427
0.301,-0.158,0.952,0.977,0.793,-0.671
0.303,-0.161,0.941,-0.488,-0.427,0.000
0.300,-0.157,0.952,-1.770,-1.526,0.488
0.300,-0.155,0.955,-1.221,-0.732,0.305
0.301,-0.158,0.950,-0.061,0.061,0.061
0.300,-0.156,0.953,-0.122,-0.244,-0.061
0.299,-0.157,0.951,0.427,0.366,0.122
0.302,-0.158,0.949,0.488,0.366,0.305
0.302,-0.158,0.948,-0.732,-0.488,0.244
0.300,-0.152,0.955,-1.282,-1.221,0.488
0.300,-0.155,0.954,0.061,-0.183,-0.122
0.303,-0.154,0.942,0.549,-0.122,-0.305
0.300,-0.158,0.945,-2.319,-1.709,-0.549
0.297,-0.147,0.954,-4.028,-2.563,-0.061
0.295,-0.150,0.958,-3.845,-2.075,-0.610
0.293,-0.156,0.967,-1.526,-0.671,-0.244
0.297,-0.152,0.951,3.662,2.563,0.122
0.299,-0.155,0.942,1.892,1.343,-0.061
0.298,-0.156,0.948,-0.549,-0.427,0.000
0.297,-0.154,0.960,-0.061,0.305,0.366
0.298,-0.152,0.951,-0.122,0.671,0.793
0.298,-0.150,0.953,0.366,0.000,1.221
0.300,-0.149,0.954,0.916,0.671,0.061
0.301,-0.155,0.952,1.282,0.732,-0.061
0.299,-0.150,0.950,0.732,0.671,-0.549
0.302,-0.153,0.947,-0.427,-0.244,-0.977
0.301,-0.156,0.946,-1.648,-1.587,-1.831
0.295,-0.156,0.957,-2.380,-1.953,-0.183
0.296,-0.149,0.962,-0.061,0.000,0.000
0.298,-0.152,0.948,0.916,0.793,-0.427
0.298,-0.153,0.954,-0.549,-0.610,-0.061
0.296,-0.151,0.957,0.122,0.061,-0.061
0.298,-0.152,0.949,1.343,0.977,0.061
0.298,-0.152,0.953,0.122,0.061,-0.061
0.300,-0.152,0.953,0.427,0.427,-0.549
0.298,-0.157,0.944,-0.305,0.122,-1.282
0.297,-0.151,0.954,-2.258,-1.587,0.061
0.295,-0.149,0.960,-1.038,-0.549,0.732
0.298,-0.152,0.950,0.671,0.732,0.366
0.301,-0.150,0.949,-0.916,-0.305,0.122
0.293,-0.145,0.963,-0.610,-0.610,-0.427
0.293,-0.148,0.967,3.235,2.197,-1.160
0.297,-0.152,0.951,5.737,4.089,-0.854
0.304,-0.153,0.947,4.639,3.235,-1.526
0.304,-0.160,0.937,2.319,2.075,-3.052
0.302,-0.162,0.942,-1.953,-0.488,-2.075
0.300,-0.171,0.949,-2.930,-1.709,0.244
0.299,-0.158,0.958,-0.977,-0.671,2.502
0.304,-0.150,0.947,-0.061,0.549,1.282
0.305,-0.148,0.944,-1.587,-0.854,-1.587
0.301,-0.158,0.950,-3.052,-2.380,-1.648
0.296,-0.154,0.959,-2.625,-1.343,-0.793
0.297,-0.153,0.946,-2.441,-1.648,0.000
0.296,-0.147,0.954,-4.150,-2.563,-0.061
0.296,-0.152,0.956,-4.150,-2.625,0.427
0.294,-0.148,0.954,-3.418,-2.258,0.793
0.293,-0.142,0.962,-2.563,-1.587,0.977
0.293,-0.143,0.953,-1.099,-0.671,0.793
0.292,-0.141,0.955,-1.343,-0.916,0.244
0.292,-0.142,0.958,-1.221,-0.549,-0.305
0.292,-0.142,0.946,-1.404,-0.793,-0.427
0.290,-0.141,0.961,-3.418,-1.953,0.061

0.793,-0.330,0.619,-55.176,-67.749,-56.030
0.560,0.062,1.033,28.687,-40.222,-0.854
0.636,0.010,0.646,-17.090,20.569,-17.334
0.774,-0.043,0.541,-7.996,-7.690,-30.396
0.725,-0.079,0.595,-13.184,-41.748,-48.279
0.694,-0.131,0.794,-53.284,-39.063,-59.082
0.769,-0.164,0.787,-62.378,0.671,-48.462
0.653,-0.141,0.771,-56.030,39.978,-24.536
0.694,-0.143,0.481,-2.014,60.547,-6.592
0.803,-0.015,0.574,-24.902,-20.996,12.268
0.633,0.029,1.079,-183.716,14.587,-19.714
0.680,-0.068,0.538,2.808,32.837,-0.183
0.751,0.112,0.649,3.052,20.935,-11.963
0.768,0.009,0.484,9.033,-12.756,-24.292
0.678,-0.094,0.740,42.236,-15.808,-19.531
0.757,-0.037,0.754,80.688,11.475,-17.151
0.675,0.063,0.889,86.182,67.810,-28.809
1.023,-0.121,-0.162,38.025,24.597,-62.744
0.670,-0.161,0.714,25.024,-98.083,-65.491
0.752,-0.202,0.724,4.517,-68.665,-62.927
0.695,-0.379,0.884,10.620,-33.569,-57.434
0.609,-0.335,0.729,22.400,-4.211,-31.250
0.596,-0.294,0.673,7.629,28.564,-19.043
0.761,-0.282,0.680,0.977,28.992,-6.836
0.633,-0.300,0.619,-8.179,22.461,-7.446
0.753,-0.268,0.670,-6.775,12.085,7.996
0.756,-0.292,0.677,2.075,-12.268,9.949
0.806,-0.255,0.666,-3.662,-1.038,20.935
0.784,-0.276,0.777,-6.836,-26.550,20.569
0.721,-0.313,0.819,-1.343,-15.564,19.714
0.691,-0.301,0.792,0.183,-1.404,13.733
0.670,-0.255,0.714,-6.287,10.071,11.902
0.659,-0.212,0.709,-12.146,4.150,18.982
0.696,-0.185,0.716,4.211,-7.080,21.729
0.643,-0.227,0.691,4.639,-0.610,9.155
0.655,-0.201,0.685,-2.197,18.433,8.362
0.715,-0.158,0.716,-2.563,7.812,12.939
0.703,-0.142,0.660,5.737,5.493,7.141
0.679,-0.167,0.612,-0.977,12.024,-0.366
0.697,-0.180,0.645,-3.906,12.878,0.549
0.731,-0.190,0.678,4.944,-6.042,4.639
0.748,-0.194,0.683,7.263,-7.507,-0.610
0.711,-0.251,0.694,3.967,2.930,1.587
0.725,-0.244,0.703,0.916,15.076,11.902
0.788,-0.167,0.694,6.836,9.216,12.329
0.781,-0.174,0.664,10.986,-8.972,10.925
0.751,-0.193,0.662,4.517,-0.488,19.043
0.771,-0.161,0.672,-0.916,15.015,24.902
0.778,-0.132,0.669,0.305,13.367,23.010
0.726,-0.193,0.644,3.784,6.592,19.897
0.734,-0.157,0.642,9.949,-1.160,32.227
0.790,-0.128,0.720,-4.456,5.920,40.100
0.711,-0.161,0.635,-6.409,21.362,41.931
0.759,-0.118,0.660,-8.179,23.254,43.762
0.784,-0.098,0.592,2.930,21.057,38.330
0.817,-0.060,0.587,-1.648,9.705,36.438
0.756,-0.057,0.606,-0.793,0.183,33.325
0.794,-0.108,0.653,13.550,-4.822,35.156
0.795,-0.014,0.600,17.578,-4.578,37.048
0.805,0.001,0.594,4.150,6.348,32.288
0.770,-0.018,0.635,11.597,-4.883,29.968
0.786,0.022,0.646,12.939,4.944,28.076
0.755,-0.035,0.626,16.296,8.606,25.024
0.769,-0.015,0.620,16.907,5.493,31.250
0.779,0.036,0.634,13.062,-0.122,30.151
0.767,0.016,0.641,19.958,3.479,23.499
0.760,0.014,0.625,20.874,2.930,26.917
0.779,0.043,0.603,12.634,1.343,31.372
0.824,0.089,0.616,10.986,4.761,33.325
0.823,0.087,0.599,14.771,-3.235,25.208
0.797,0.049,0.639,30.701,-12.939,24.658
0.802,0.087,0.623,23.254,-9.888,32.898
0.849,0.133,0.607,5.493,-6.165,27.283
0.756,0.014,0.666,3.479,-12.268,37.903
0.721,0.031,0.677,12.512,-1.038,51.514
0.816,0.215,0.587,13.611,-2.869,42.847
0.814,0.222,0.670,6.348,-11.902,21.973
0.726,0.098,0.799,2.136,6.042,9.521
0.689,0.101,0.714,20.325,19.165,19.104
0.742,0.194,0.612,19.775,28.931,22.827
0.741,0.225,0.572,5.554,21.179,3.357
0.738,0.141,0.607,-16.052,30.151,-7.141
0.711,0.036,0.600,-21.790,38.391,2.625
0.801,0.145,0.595,-24.841,57.678,22.522
0.922,0.284,0.519,-21.973,54.504,9.521
0.874,0.202,0.486,-20.630,36.194,-6.104
0.802,0.049,0.488,-15.991,35.522,9.338
0.805,0.155,0.381,-6.714,21.484,28.809
0.934,0.239,0.536,-13.306,1.831,-7.874
0.821,0.109,0.520,-44.128,28.320,2.686
0.851,0.169,0.435,-29.236,35.339,11.353
0.866,0.246,0.435,-31.067,30.334,15.198
0.934,0.356,0.414,-58.533,24.475,1.404
0.885,0.210,0.438,-51.147,6.775,9.338
0.899,0.292,0.374,-53.223,12.207,16.418
0.857,0.291,0.400,-35.278,-10.315,9.888
0.913,0.279,0.440,-8.789,-17.700,12.512
0.873,0.304,0.384,9.155,-35.339,-1.404
0.813,0.287,0.405,20.081,-47.241,-27.405
0.885,0.240,0.463,18.616,-39.490,-23.621
0.759,0.139,0.419,-5.676,-8.667,-2.014
0.834,0.227,0.439,-10.925,-5.066,8.057
0.834,0.277,0.437,-5.737,-28.076,-0.427
0.854,0.350,0.451,-4.272,-45.349,-13.000
0.809,0.255,0.557,11.047,-85.510,-54.932
0.803,0.215,0.575,13.672,-86.853,-73.853
0.781,0.103,0.607,15.808,-62.195,-70.129
0.761,0.062,0.564,7.996,-5.737,-34.607
0.736,0.043,0.548,-1.038,26.367,-8.545
0.818,0.143,0.589,-13.794,13.306,-5.615
0.826,0.117,0.599,-10.620,19.043,0.366
0.831,0.129,0.579,-9.766,25.330,-2.441
0.862,0.139,0.543,-9.399,19.531,-11.108
0.849,0.178,0.523,-5.859,-9.338,-11.169
0.791,0.087,0.573,1.099,-18.616,8.484
0.773,0.127,0.570,14.099,-25.146,34.424
0.861,0.211,0.577,29.236,-30.029,28.870
0.715,0.212,0.643,52.002,-33.264,12.878
0.781,0.130,0.613,67.139,-11.841,33.081
0.785,0.158,0.587,64.758,-12.756,39.978
0.861,0.130,0.631,54.077,-12.817,29.602
0.798,0.101,0.656,38.940,3.723,22.278
0.732,0.148,0.764,88.379,11.536,37.170
0.749,0.048,0.527,51.514,0.854,39.063
0.729,0.164,0.596,15.137,-1.709,32.715

0.604,0.069,0.812,38.574,13.000,-5.310
0.906,0.018,0.770,95.520,26.123,18.250
0.712,-0.131,0.588,61.829,19.653,9.277
0.691,-0.036,0.735,16.602,23.499,13.672
0.790,-0.024,0.665,74.524,25.146,6.042
0.830,-0.058,0.612,49.500,12.024,-10.254
0.766,-0.091,0.616,1.526,15.015,-6.042
0.690,-0.025,0.694,-8.911,19.165,5.981
0.810,-0.065,0.631,16.479,7.629,13.855
0.791,-0.068,0.609,9.338,-6.775,2.258
0.814,-0.069,0.617,-14.282,-0.488,2.502
0.705,-0.002,0.705,-25.208,-4.211,-3.723
0.768,-0.068,0.649,2.563,-8.301,5.676
0.778,-0.064,0.651,-1.770,-7.690,5.859
0.779,-0.031,0.663,-9.094,-1.160,2.136
0.750,-0.052,0.657,-8.728,-0.793,-3.906
0.746,-0.056,0.661,-2.991,-3.540,-1.587
0.759,-0.055,0.674,-2.014,-1.953,2.319
0.765,-0.030,0.662,-2.319,-0.061,2.380
0.764,-0.034,0.665,-2.197,0.977,-0.366
0.760,-0.043,0.664,0.671,1.892,-4.211
0.756,-0.042,0.656,1.892,0.671,-3.174
0.757,-0.032,0.650,-2.258,-3.662,-1.709
0.768,-0.038,0.661,-2.869,-3.357,-1.526
0.765,-0.040,0.658,-2.441,-1.282,-3.418
0.769,-0.033,0.667,-1.770,-1.221,-4.089
0.746,-0.038,0.662,-2.380,-11.230,-8.423
0.740,-0.055,0.652,-1.831,-8.057,-2.197
0.745,-0.048,0.658,2.991,-1.160,2.747
0.747,-0.042,0.644,1.587,0.793,1.282
0.753,-0.037,0.672,-0.671,-2.197,-3.418
0.729,-0.072,0.666,0.732,-2.441,-4.944
0.729,-0.067,0.672,-0.366,-0.061,-0.061
0.729,-0.045,0.670,2.319,-3.174,2.014
0.762,-0.054,0.698,4.089,-5.554,1.404
0.764,-0.059,0.699,6.409,-2.380,-2.869
0.745,-0.076,0.693,3.845,-2.625,-3.601
0.738,-0.071,0.701,0.061,-0.671,1.038
0.747,-0.054,0.683,-2.563,-1.953,1.038
0.731,-0.058,0.665,-0.977,-0.916,2.563
0.745,-0.042,0.668,1.892,-1.831,1.892
0.742,-0.033,0.656,-3.662,-3.845,-0.427
0.743,-0.050,0.691,-3.052,-7.324,-2.747
0.735,-0.058,0.685,0.427,-5.798,-1.648
0.731,-0.053,0.699,-1.709,-1.770,0.732
0.740,-0.054,0.699,-1.526,-1.953,0.977
0.734,-0.046,0.682,-1.221,-3.357,-0.305
0.728,-0.055,0.682,0.488,-1.404,-0.549
0.729,-0.051,0.692,1.343,1.221,-1.526
0.726,-0.054,0.686,-0.488,0.793,0.488
0.740,-0.051,0.693,-1.770,0.000,1.648
0.734,-0.053,0.690,-0.366,0.244,0.244
0.733,-0.050,0.688,1.282,2.502,-0.061
0.729,-0.051,0.687,-0.244,0.854,-0.977
0.732,-0.054,0.689,0.610,-2.563,-0.061
0.738,-0.057,0.699,2.930,-0.916,0.305
0.731,-0.061,0.689,-0.427,1.587,-0.549
0.730,-0.061,0.688,-1.526,1.587,0.977
0.732,-0.049,0.685,-0.122,-0.305,1.038
0.735,-0.046,0.682,-3.174,-0.244,0.793
0.732,-0.052,0.678,-4.883,0.183,-0.427
0.724,-0.053,0.676,-9.033,-2.502,0.793
0.738,-0.029,0.703,-13.000,-3.662,2.136
0.734,-0.033,0.711,-6.592,-2.625,-0.427
0.737,-0.038,0.699,-4.395,-0.427,0.122
0.727,-0.034,0.690,-6.897,-1.892,-0.427
0.724,-0.020,0.699,-7.690,-2.563,0.183
0.733,-0.019,0.706,-2.502,-4.150,-1.709
0.717,-0.034,0.694,2.808,-3.113,-2.686
0.728,-0.034,0.706,2.197,-0.732,-0.977
0.728,-0.034,0.704,-3.052,0.000,-0.549
0.731,-0.029,0.698,-1.221,-0.122,-0.793
0.721,-0.031,0.685,-1.648,0.122,-2.136
0.717,-0.035,0.697,-2.625,-1.892,-2.625
0.723,-0.040,0.702,0.183,-4.272,-3.540
0.721,-0.049,0.704,-0.671,-0.916,-0.977
0.722,-0.039,0.709,0.183,-1.038,-2.136
0.720,-0.031,0.698,0.061,-0.977,-1.709
0.716,-0.038,0.702,-3.235,-0.305,-2.686
0.715,-0.040,0.709,-1.221,-1.221,-2.686
0.717,-0.041,0.703,-0.061,-1.465,-1.770
0.717,-0.031,0.698,-0.916,-1.953,-0.366
0.721,-0.029,0.702,-1.831,-2.136,-0.854
0.717,-0.046,0.712,-0.854,-1.343,-0.488
0.710,-0.051,0.703,0.854,-1.648,0.488
0.726,-0.028,0.706,0.488,-4.822,-2.747
0.703,-0.040,0.695,-2.319,-3.174,-0.916
0.713,-0.040,0.722,-1.770,-2.563,0.793
0.714,-0.030,0.719,0.488,-3.845,-1.709
0.707,-0.023,0.708,-2.930,-2.441,-0.793
0.719,-0.024,0.727,-4.333,-3.052,-0.732
0.715,-0.022,0.714,-2.197,-4.517,-1.892
0.712,-0.023,0.718,-2.014,-4.150,-4.822
0.699,-0.036,0.709,-1.953,-6.592,-6.287
0.691,-0.047,0.714,-0.732,-3.784,-1.831
0.702,-0.042,0.730,-3.235,-6.287,-1.648
0.704,-0.043,0.741,-3.967,-3.357,-2.747
0.692,-0.061,0.745,0.183,-2.747,-3.296
0.686,-0.046,0.719,2.075,-1.587,0.305
0.700,-0.027,0.733,0.122,-0.366,0.854
0.703,-0.040,0.730,-2.563,1.709,0.000
0.690,-0.038,0.716,-1.465,-1.343,-2.625
0.692,-0.032,0.725,-1.282,-4.028,-1.465
0.695,-0.028,0.731,-2.014,-4.211,-2.258
0.699,-0.045,0.743,-4.333,-3.235,-3.418
0.687,-0.051,0.738,-0.183,-1.587,-2.869
0.691,-0.035,0.733,-0.549,-3.052,-1.587
0.688,-0.035,0.728,-1.038,-2.319,-1.648
0.683,-0.048,0.732,-3.235,-1.587,-2.747
0.683,-0.045,0.740,0.183,-0.244,-0.488
0.690,-0.024,0.722,0.610,-3.296,-1.282
0.686,-0.030,0.726,-2.869,-4.822,-3.662
0.680,-0.037,0.730,-1.282,-3.357,-4.150
0.676,-0.039,0.750,-2.197,-2.319,-1.343
0.697,-0.033,0.762,-2.563,-2.563,-1.953
0.679,-0.048,0.744,-2.014,-2.319,-4.028
0.688,-0.041,0.758,-1.160,-2.136,-3.845
0.672,-0.053,0.745,0.183,1.221,-3.723
0.669,-0.058,0.747,-0.610,-0.183,-3.052
0.675,-0.050,0.744,-1.099,-0.854,-2.136
0.680,-0.044,0.737,-1.953,-2.747,-1.831
0.679,-0.046,0.748,-1.953,-2.747,-2.258
0.681,-0.060,0.770,-0.427,-1.160,-2.502
0.677,-0.042,0.748,0.244,0.305,-1.099
0.683,-0.039,0.754,-1.404,-0.488,-1.526

0.312,-0.687,1.500,-127.319,-112.915,-46.692
0.367,-0.675,0.945,-13.184,8.545,-23.193
0.318,-0.604,0.871,16.418,36.072,26.733
0.312,-0.407,0.815,41.382,26.917,28.564
0.355,-0.357,0.679,16.541,8.789,-3.723
0.323,-0.393,0.736,-43.701,-28.625,-15.808
0.352,-0.478,0.905,-38.208,-39.734,-2.808
0.399,-0.410,0.988,-11.475,-12.329,1.160
0.321,-0.406,0.860,2.502,2.869,-4.517
0.314,-0.405,0.864,15.747,0.000,-0.244
0.337,-0.416,0.855,17.090,1.221,-3.418
0.334,-0.442,0.832,6.042,-0.488,-6.714
0.316,-0.467,0.827,-1.709,-1.648,-4.089
0.321,-0.443,0.849,-5.066,-3.601,-0.183
0.326,-0.422,0.848,-5.432,-4.211,1.221
0.323,-0.442,0.859,-5.432,-3.723,-1.465
0.315,-0.435,0.854,-6.409,-3.174,0.183
0.317,-0.410,0.854,-6.836,-3.113,1.831
0.312,-0.420,0.866,-7.446,-4.333,-1.526
0.311,-0.428,0.879,-3.052,-2.563,-1.526
0.318,-0.414,0.871,3.967,1.160,0.183
0.314,-0.423,0.842,3.662,1.282,-1.526
0.311,-0.428,0.856,-3.540,-2.136,-1.404
0.315,-0.422,0.870,-2.625,-2.014,-0.916
0.311,-0.419,0.863,-0.427,-0.854,-0.916
0.309,-0.421,0.860,-1.770,-0.977,-1.770
0.311,-0.425,0.869,-1.953,-1.343,-2.014
0.303,-0.426,0.862,-0.916,0.122,-0.793
0.307,-0.421,0.860,-1.038,-1.038,0.183
0.306,-0.422,0.870,-1.709,-0.977,0.427
0.309,-0.413,0.870,0.122,-0.488,0.183
0.307,-0.423,0.863,0.977,-0.305,-0.916
0.303,-0.425,0.861,0.427,-0.183,0.610
0.309,-0.412,0.868,-1.404,-0.793,-0.549
0.309,-0.426,0.870,1.648,0.427,-0.122
0.304,-0.419,0.851,-1.160,-0.854,0.427
0.307,-0.420,0.876,-1.648,-1.343,-0.244
0.309,-0.416,0.867,-0.488,-0.793,-0.549
0.302,-0.424,0.864,0.244,-1.099,-0.366
0.301,-0.418,0.865,-0.732,-1.160,0.061
0.307,-0.417,0.875,-0.183,-0.732,-0.244
0.302,-0.424,0.863,0.916,0.916,-0.427
0.304,-0.416,0.866,-0.244,0.305,-0.244
0.303,-0.418,0.867,0.122,-0.061,-0.244
0.305,-0.423,0.869,0.610,0.244,-0.122
0.305,-0.417,0.863,0.671,0.122,0.183
0.306,-0.421,0.871,0.000,-0.427,-0.488
0.302,-0.422,0.861,0.916,0.305,-0.061
0.300,-0.420,0.865,-0.793,-0.061,-0.305
0.304,-0.422,0.875,0.305,0.061,-0.366
0.305,-0.415,0.859,1.831,1.221,0.000
0.303,-0.422,0.867,0.000,0.000,-0.427
0.304,-0.422,0.863,-0.122,0.122,0.061
0.304,-0.420,0.864,-0.244,-0.183,0.122
0.303,-0.418,0.868,-0.305,-0.488,-0.366
0.305,-0.423,0.864,-0.061,0.000,-0.610
0.304,-0.418,0.862,-1.587,-0.244,-1.343
0.311,-0.418,0.869,-2.075,0.488,-4.761
0.293,-0.436,0.860,-0.549,1.404,-1.526
0.298,-0.412,0.866,-0.122,0.183,1.221
0.306,-0.417,0.875,0.977,-0.732,-0.366
0.302,-0.419,0.863,1.160,-0.122,-0.793
0.301,-0.423,0.863,-0.061,-1.343,-0.671
0.299,-0.429,0.866,-1.282,-0.854,0.061
0.299,-0.417,0.866,-1.038,0.000,0.305
0.300,-0.415,0.869,-0.671,-0.854,0.183
0.303,-0.420,0.874,-0.549,-0.244,0.000
0.300,-0.420,0.865,0.671,0.000,-0.183
0.301,-0.421,0.866,-0.732,-0.488,-0.610
0.299,-0.424,0.867,-0.610,-0.427,-0.549
0.299,-0.414,0.865,-0.916,0.000,0.488
0.300,-0.411,0.870,-1.221,-0.549,0.000
0.298,-0.423,0.873,-1.160,-0.122,-0.916
0.297,-0.418,0.869,0.000,0.427,-0.122
0.300,-0.413,0.869,0.183,-0.305,0.427
0.298,-0.417,0.870,0.732,-0.305,-0.244
0.299,-0.418,0.868,0.427,-0.122,-0.244
0.300,-0.418,0.866,-0.061,-0.122,0.000
0.298,-0.418,0.869,-0.671,-0.122,0.122
0.298,-0.417,0.867,0.305,-0.122,-0.122
0.298,-0.416,0.870,-0.427,-0.122,0.183
0.300,-0.418,0.870,0.732,-0.061,-0.183
0.297,-0.419,0.860,0.061,0.183,-0.244
0.296,-0.418,0.868,-1.099,-0.305,0.244
0.301,-0.412,0.870,-0.549,-0.671,0.061
0.296,-0.417,0.861,-2.991,-1.953,-0.427
0.287,-0.423,0.862,-13.306,-2.991,2.075
0.298,-0.405,0.886,-6.897,-2.869,1.404
0.296,-0.402,0.890,1.709,0.427,-0.122
0.296,-0.405,0.876,4.456,1.099,-0.977
0.293,-0.413,0.865,2.136,0.977,-1.038
0.292,-0.409,0.876,0.000,-0.244,-0.305
0.297,-0.412,0.875,0.916,0.000,0.366
0.296,-0.412,0.868,0.305,0.061,-0.427
0.293,-0.410,0.873,-0.977,-0.427,-0.305
0.292,-0.409,0.876,-0.610,-0.732,0.000
0.293,-0.411,0.876,-0.244,0.122,0.000
0.298,-0.406,0.874,1.587,0.671,0.061
0.300,-0.410,0.874,1.587,0.061,-0.183
0.292,-0.414,0.869,1.221,-0.183,-0.366
0.293,-0.410,0.874,-0.488,-0.671,0.122
0.293,-0.415,0.875,-0.061,-0.244,-0.305
0.296,-0.412,0.874,0.549,0.000,0.122
0.292,-0.413,0.870,0.854,0.610,-0.061
0.291,-0.414,0.871,-0.366,0.244,-0.244
0.297,-0.413,0.877,-0.366,0.549,0.549
0.299,-0.405,0.875,1.160,0.610,0.549
0.293,-0.411,0.874,1.526,-0.366,-0.122
0.294,-0.416,0.868,1.709,-0.305,-0.183
0.293,-0.414,0.868,0.305,-0.183,0.000
0.292,-0.414,0.873,-1.160,-0.610,0.122
0.293,-0.413,0.875,-0.305,0.183,0.366
0.295,-0.410,0.872,-0.549,0.000,0.183
0.293,-0.412,0.874,0.793,-0.183,-0.305
0.293,-0.417,0.873,0.183,-0.061,-0.244
0.295,-0.414,0.871,0.427,0.244,0.061
0.296,-0.413,0.870,-0.732,-0.427,0.061
0.293,-0.412,0.873,-1.221,-0.488,0.183
0.292,-0.411,0.877,0.244,0.122,0.549
0.293,-0.410,0.875,0.793,0.122,-0.427
0.296,-0.416,0.873,1.343,0.488,-0.610
0.294,-0.416,0.867,0.427,0.366,-0.305
0.292,-0.412,0.873,-1.282,-0.488,0.122
0.290,-0.414,0.873,-0.854,-0.549,0.549
0.297,-0.411,0.878,-0.793,-0.183,0.305

0.293,-0.417,0.876,-1.648,-0.244,0.244
0.295,-0.417,0.869,0.366,0.244,0.549
0.296,-0.419,0.874,0.183,0.183,0.000
0.297,-0.417,0.871,0.916,0.183,-0.061
0.295,-0.420,0.871,0.000,1.587,-0.977
0.289,-0.417,0.867,0.122,1.221,-0.671
0.293,-0.418,0.871,0.244,-0.977,-0.061
0.292,-0.424,0.871,0.244,-0.244,-0.305
0.294,-0.420,0.870,1.282,1.953,-0.427
0.294,-0.419,0.871,1.404,0.977,-0.061
0.295,-0.419,0.869,1.709,0.793,0.061
0.296,-0.420,0.868,0.366,0.366,-0.305
0.293,-0.424,0.867,0.244,0.549,-0.122
0.297,-0.420,0.873,0.977,0.549,0.610
0.296,-0.422,0.867,1.160,0.549,-0.366
0.294,-0.424,0.865,-0.610,0.305,0.000
0.298,-0.419,0.872,-0.549,-0.122,0.427
0.298,-0.422,0.871,0.671,0.183,0.122
0.296,-0.421,0.867,0.671,0.366,-0.061
0.296,-0.421,0.866,-0.610,-0.549,0.122
0.297,-0.421,0.870,-0.427,-0.610,0.061
0.295,-0.423,0.871,-0.061,-0.488,-0.183
0.294,-0.423,0.865,0.122,-0.061,0.000
0.295,-0.421,0.867,-0.671,-0.305,0.244
0.295,-0.418,0.872,-0.427,-0.427,0.305
0.296,-0.422,0.872,0.000,-0.305,-0.244
0.294,-0.423,0.863,0.610,0.366,-0.183
0.296,-0.421,0.866,-1.282,-0.183,0.366
0.296,-0.416,0.873,-0.793,-0.366,0.549
0.290,-0.418,0.874,0.183,-0.488,-0.427
0.289,-0.426,0.864,0.488,0.244,-0.488
0.291,-0.424,0.861,-1.343,-0.305,-0.061
0.299,-0.415,0.879,-3.296,-1.099,0.793
0.298,-0.416,0.875,-1.221,-0.488,0.366
0.293,-0.418,0.867,0.427,0.305,-0.244
0.295,-0.420,0.872,-0.122,-1.709,-0.244
0.291,-0.421,0.873,-0.122,-0.793,-0.916
0.289,-0.418,0.873,1.343,0.061,-0.488
0.291,-0.417,0.867,0.916,-0.061,-0.061
0.297,-0.420,0.875,1.404,0.366,-0.061
0.301,-0.422,0.866,1.160,-0.427,-0.427
0.297,-0.417,0.875,0.977,-1.160,-0.610
0.283,-0.425,0.864,2.014,-0.610,-0.977
0.281,-0.428,0.871,1.953,0.061,-0.366
0.283,-0.425,0.863,-1.770,0.793,0.183
0.286,-0.423,0.871,-3.723,0.977,0.610
0.299,-0.419,0.872,-2.258,0.671,0.488
0.302,-0.417,0.873,-1.099,0.977,-0.549
0.294,-0.415,0.865,-0.977,-1.038,-1.282
0.289,-0.419,0.874,-1.953,-1.160,-1.343
0.290,-0.419,0.874,-1.526,-0.061,-1.282
0.288,-0.414,0.876,-0.183,-0.305,-0.488
0.285,-0.413,0.877,0.427,0.000,-1.282
0.279,-0.419,0.872,1.404,0.916,-2.014
0.287,-0.416,0.881,3.174,1.831,-2.014
0.289,-0.431,0.867,4.150,3.113,-2.686
0.295,-0.425,0.861,3.052,4.211,-0.793
0.302,-0.420,0.866,1.526,2.747,0.122
0.292,-0.423,0.857,0.122,2.625,-1.343
0.293,-0.432,0.872,-1.770,0.122,-1.038
0.299,-0.422,0.859,-0.732,0.732,0.244
0.295,-0.430,0.868,-4.883,-0.549,-0.549
0.296,-0.422,0.878,-3.235,-0.366,2.563
0.301,-0.404,0.875,-0.977,-0.305,2.441
0.292,-0.420,0.869,0.610,-0.305,-1.160
0.293,-0.418,0.872,2.747,0.000,-1.099
0.296,-0.414,0.869,2.014,-0.366,-1.709
0.299,-0.426,0.874,3.845,-0.244,-2.930
0.304,-0.410,0.881,7.935,-0.671,-4.944
0.281,-0.436,0.865,10.864,0.916,-6.775
0.270,-0.447,0.839,4.028,0.549,-3.540
0.278,-0.446,0.868,-3.967,-1.160,-1.404
0.283,-0.436,0.863,-2.197,4.517,2.136
0.300,-0.427,0.859,-2.625,1.465,1.526
0.320,-0.441,0.904,0.183,1.831,1.282
0.297,-0.410,0.828,7.874,1.831,-2.014
0.289,-0.440,0.896,4.272,-2.502,-2.563
0.305,-0.442,0.867,15.137,3.662,-4.517
0.291,-0.458,0.831,8.606,1.587,-4.639
0.294,-0.453,0.848,5.432,-0.671,-2.014
0.290,-0.458,0.852,3.296,-0.732,-2.441
0.277,-0.451,0.838,0.977,1.404,-3.052
0.278,-0.464,0.862,-2.747,-1.038,-0.916
0.286,-0.447,0.855,-0.305,1.282,0.488
0.293,-0.451,0.863,0.488,1.160,-0.061
0.303,-0.448,0.858,1.526,1.953,-0.793
0.298,-0.450,0.845,1.587,2.563,-2.380
0.285,-0.464,0.846,-1.160,0.916,-2.869
0.287,-0.451,0.857,-0.427,1.099,0.305
0.290,-0.444,0.852,-1.038,1.709,0.793
0.296,-0.451,0.860,-1.160,0.671,-0.061
0.286,-0.458,0.850,1.343,1.404,-0.366
0.288,-0.462,0.861,1.648,0.671,0.122
0.292,-0.462,0.841,4.517,2.625,1.038
0.293,-0.458,0.843,1.587,2.258,1.221
0.297,-0.462,0.846,-1.343,2.014,2.014
0.306,-0.458,0.848,-3.296,2.258,3.235
0.316,-0.441,0.856,-0.916,1.831,3.235
0.315,-0.440,0.855,0.549,1.221,0.183
0.300,-0.453,0.846,1.343,0.916,-1.343
0.295,-0.457,0.848,1.587,-0.793,0.183
0.297,-0.457,0.844,0.122,0.305,0.671
0.302,-0.459,0.847,-1.526,1.160,1.709
0.302,-0.456,0.840,-4.089,0.305,2.441
0.307,-0.449,0.853,-1.648,-0.610,1.587
0.306,-0.446,0.853,-0.366,0.549,0.793
0.304,-0.451,0.852,0.488,0.305,0.671
0.305,-0.453,0.852,0.793,0.732,0.000
0.301,-0.453,0.846,0.122,-0.305,0.793
0.306,-0.448,0.849,0.061,-0.122,1.282
0.308,-0.445,0.852,-0.671,-0.549,0.488
0.305,-0.448,0.854,0.366,-0.366,0.061
0.301,-0.450,0.849,0.916,0.183,-0.366
0.301,-0.451,0.852,0.244,0.305,-0.183
0.300,-0.453,0.845,0.183,0.488,-0.305
0.302,-0.451,0.855,-0.305,0.427,-0.061
0.304,-0.449,0.850,0.977,0.366,0.000
0.306,-0.453,0.846,-0.122,0.244,-0.244
0.305,-0.451,0.854,-1.404,0.061,0.122
0.306,-0.447,0.855,0.732,0.854,0.061
0.307,-0.447,0.845,1.587,0.916,-0.549
0.304,-0.458,0.849,-0.183,0.305,-0.732
0.302,-0.450,0.844,-1.221,-0.122,0.122
0.304,-0.449,0.858,-1.526,-0.488,-0.183
0.303,-0.450,0.850,1.709,0.732,0.122

0.302,-0.451,0.850,0.671,0.244,-0.305
0.303,-0.453,0.849,0.610,0.244,0.366
0.308,-0.445,0.854,0.549,0.305,0.183
0.306,-0.448,0.848,-0.366,-0.061,-0.244
0.303,-0.448,0.854,-0.610,0.000,-0.122
0.304,-0.448,0.852,0.366,0.610,-0.122
0.304,-0.450,0.851,0.122,0.244,-0.366
0.304,-0.452,0.850,0.488,0.183,0.061
0.301,-0.451,0.846,-1.160,-0.488,0.488
0.305,-0.446,0.854,-0.610,-0.427,0.366
0.304,-0.445,0.857,0.366,0.183,-0.122
0.301,-0.448,0.851,1.587,0.671,-0.183
0.304,-0.450,0.846,1.221,0.488,0.244
0.305,-0.450,0.846,-1.099,-0.427,0.061
0.303,-0.447,0.854,-2.380,-0.977,0.000
0.303,-0.449,0.861,-0.549,-0.305,-0.122
0.305,-0.449,0.843,1.221,0.793,0.122
0.304,-0.450,0.850,-0.916,-0.305,0.244
0.302,-0.444,0.857,-0.305,-0.183,0.427
0.302,-0.447,0.853,-0.610,-0.061,0.244
0.303,-0.446,0.852,0.122,0.183,0.183
0.303,-0.446,0.857,0.061,-0.061,0.000
0.302,-0.448,0.849,1.038,0.488,-0.244
0.303,-0.449,0.850,0.122,0.061,-0.061
0.304,-0.448,0.850,-0.854,-0.488,0.122
0.302,-0.446,0.858,-0.610,-0.366,0.244
0.301,-0.445,0.849,0.488,-0.244,0.061
0.304,-0.446,0.859,0.183,0.305,-0.427
0.303,-0.448,0.850,0.610,0.671,0.305
0.304,-0.447,0.849,-0.122,0.183,-0.061
0.302,-0.448,0.852,-0.916,-0.366,0.000
0.301,-0.444,0.853,-0.122,0.000,0.061
0.302,-0.446,0.856,1.221,0.610,0.305
0.301,-0.448,0.850,0.488,0.549,-0.244
0.302,-0.450,0.848,-0.977,-0.061,0.000
0.302,-0.447,0.854,-1.282,-0.488,0.366
0.307,-0.445,0.860,0.671,0.549,0.305
0.304,-0.443,0.850,1.099,0.488,-0.122
0.304,-0.448,0.851,0.183,0.000,-0.488
0.303,-0.450,0.848,-0.610,-0.122,-0.122
0.305,-0.444,0.858,-1.404,-0.671,0.610
0.303,-0.442,0.853,-0.244,-0.061,0.000
0.302,-0.448,0.857,0.061,-0.793,-0.122
0.299,-0.447,0.852,0.305,-0.061,0.000
0.301,-0.445,0.857,-0.183,0.061,0.183
0.302,-0.443,0.853,1.038,0.549,0.061
0.303,-0.446,0.853,-0.061,0.122,-0.305
0.301,-0.449,0.851,0.488,0.305,-0.061
0.302,-0.447,0.853,-0.488,-0.244,0.305
0.302,-0.445,0.857,-0.366,0.000,0.305
0.301,-0.445,0.857,0.732,0.427,0.061
0.304,-0.447,0.848,0.610,0.610,-0.061
0.305,-0.448,0.852,-1.038,-0.366,0.000
0.302,-0.445,0.856,-0.854,-0.183,-0.122
0.300,-0.445,0.856,0.854,0.427,0.122
0.303,-0.445,0.854,0.549,0.305,-0.244
0.302,-0.448,0.847,-0.427,-0.122,0.000
0.301,-0.447,0.858,-0.732,-0.366,0.244
0.301,-0.445,0.854,0.610,0.610,0.183
0.304,-0.444,0.856,0.000,0.061,-0.244
0.302,-0.447,0.851,-0.183,0.183,0.000
0.304,-0.448,0.853,-0.305,-0.244,0.183
0.305,-0.442,0.856,1.099,0.610,0.427
0.302,-0.442,0.851,0.000,-0.183,0.000
0.303,-0.444,0.854,0.305,0.122,-0.305
0.302,-0.451,0.850,-0.793,-0.244,-0.549
0.301,-0.446,0.855,-0.549,-0.183,0.366
0.302,-0.442,0.857,-0.061,0.061,0.305
0.302,-0.446,0.855,1.343,0.610,-0.244
0.301,-0.447,0.849,0.610,0.366,-0.122
0.303,-0.446,0.856,-0.916,-0.305,0.122
0.304,-0.443,0.855,0.427,0.183,0.244
0.303,-0.446,0.852,0.366,0.183,-0.183
0.303,-0.448,0.850,-0.854,-0.183,-0.305
0.300,-0.445,0.857,-0.977,-0.305,0.366
0.303,-0.444,0.858,-0.305,0.366,0.183
0.306,-0.444,0.854,0.549,0.244,0.000
