aX,aY,aZ,gX,gY,gZ
0.852,-0.079,0.545,-4.150,0.427,0.122
0.859,-0.050,0.547,-2.686,1.038,2.625
0.851,-0.053,0.536,-3.906,2.869,0.854
0.848,-0.082,0.551,-5.005,2.502,1.221
0.835,-0.092,0.541,-1.526,3.845,3.845
0.853,-0.058,0.531,-5.188,8.301,7.446
0.868,-0.036,0.541,-6.775,8.240,6.470
0.861,-0.002,0.488,-5.310,4.944,1.404
0.873,-0.014,0.465,-8.545,5.859,1.038
0.878,0.056,0.439,-8.301,2.563,-5.371
0.924,0.036,0.484,-3.052,-3.967,-20.874
0.950,-0.173,0.515,-31.555,-11.841,-20.813
0.884,-0.533,0.891,-34.607,-15.869,7.935
0.609,-0.981,1.080,-30.396,22.034,48.645
0.481,-0.894,1.049,-12.451,51.331,98.083
0.391,-0.811,0.853,9.521,74.219,152.832
0.329,-0.538,0.657,22.095,83.557,226.929
0.265,0.021,0.626,-154.541,72.266,268.127
0.249,0.971,0.234,99.487,167.053,277.649
0.465,1.427,-0.110,126.892,211.121,292.419
0.363,1.729,-0.666,-18.738,198.975,256.714
0.293,2.531,-0.961,-23.682,107.910,159.241
0.132,2.810,-1.329,4.883,31.860,-1.404
-0.085,2.664,-0.881,66.833,-61.707,-167.725
-0.076,1.508,-0.137,-50.171,-222.717,-297.852
-0.080,1.052,0.553,-36.377,-258.606,-296.509
-0.279,0.234,0.797,-3.906,-259.155,-362.549
-0.232,-0.722,1.167,-64.209,-213.623,-377.930
-0.021,-1.386,1.702,-113.647,-154.419,-278.503
0.458,-1.763,1.953,-130.798,-67.566,-119.385
0.404,-1.431,1.465,-47.241,14.038,-51.514
0.386,-1.247,1.141,18.494,21.484,12.512
0.443,-1.318,1.382,43.884,26.245,72.571
0.504,-1.018,1.480,57.434,51.941,164.795
0.424,-0.502,1.221,52.612,140.198,235.413
0.221,-0.233,0.802,47.363,182.861,244.080
0.097,-0.082,0.769,86.792,174.194,259.766
-0.099,0.242,0.798,-28.320,217.712,283.020
-0.049,1.529,0.012,-5.737,210.693,255.920
-0.040,1.881,-0.666,-23.071,213.013,237.854
0.117,2.722,-1.324,207.947,140.808,151.917
-0.015,2.035,-0.947,85.266,24.658,-21.301
0.205,2.133,-0.646,57.068,-54.993,-91.309
0.310,2.332,-0.294,-46.997,-79.346,-165.039
0.218,1.727,-0.046,-71.472,-99.548,-235.718
0.119,1.419,0.125,-105.041,-116.394,-285.706
-0.024,0.960,0.313,-111.450,-148.254,-346.741
-0.161,-0.036,0.448,-83.374,-212.585,-323.364
-0.180,-0.523,1.010,-88.318,-239.746,-271.423
0.199,-1.110,1.777,-115.967,-168.945,-170.288
0.516,-1.678,1.915,-84.290,-53.101,-155.212
0.384,-1.661,1.416,-9.216,38.940,-69.031
0.479,-1.574,1.333,-30.334,36.926,28.198
0.574,-1.242,1.261,-21.484,61.829,98.572
0.563,-0.900,1.195,24.109,86.365,138.977
0.435,-0.803,1.070,56.824,105.652,184.021
0.333,-0.643,0.869,88.135,135.681,265.442
0.079,-0.132,0.715,108.582,158.508,356.262
-0.238,0.770,0.612,59.692,155.212,393.188
-0.062,1.506,0.258,-46.631,186.340,377.075
-0.286,1.769,-0.614,-95.398,151.306,265.137
-0.203,2.058,-1.072,48.645,115.540,179.810
0.029,2.266,-0.635,99.548,79.834,81.238
0.033,1.859,-0.633,54.321,-10.010,-64.148
0.192,1.517,-0.318,56.274,-57.190,-121.826
0.285,1.449,-0.078,34.912,-93.506,-138.184
0.293,1.012,0.117,50.842,-109.924,-197.327
0.367,0.628,0.265,46.448,-116.943,-206.543
0.387,-0.004,0.422,37.109,-132.324,-219.299
0.552,-0.209,0.689,13.977,-136.047,-169.800
0.668,-0.256,0.902,-7.629,-99.915,-112.305
0.800,0.202,1.152,-5.676,-49.194,-87.402
0.710,-0.008,0.793,50.659,4.578,-97.107
0.811,-0.280,0.579,48.706,-12.695,-70.190
0.829,-0.220,0.786,11.719,7.690,-43.030
0.889,-0.275,0.761,-5.554,36.743,1.404
0.879,-0.119,0.758,-8.362,24.353,43.457
0.882,0.077,0.599,6.897,19.531,49.622
0.858,0.133,0.614,19.348,13.306,34.973
0.822,0.133,0.516,3.601,18.616,34.241
0.838,0.320,0.549,-23.437,13.672,40.405
0.773,0.390,0.500,-27.954,15.747,36.865
0.797,0.318,0.444,-19.043,3.296,38.330
0.792,0.378,0.436,-14.038,-5.127,37.048
0.759,0.471,0.487,-6.042,-8.972,26.245
0.726,0.223,0.444,2.136,0.488,13.245
0.796,0.475,0.447,1.465,1.709,29.968
0.764,0.518,0.513,8.911,-5.066,9.155
0.777,0.374,0.517,-2.686,1.892,-1.892
0.805,0.410,0.493,-3.601,1.709,5.920
0.798,0.379,0.489,3.723,-6.348,-4.333
0.778,0.320,0.529,2.319,-8.423,-7.019
0.788,0.318,0.490,-2.075,1.953,2.197
0.793,0.333,0.532,-1.709,0.122,4.028
0.782,0.397,0.526,0.793,-1.526,2.319
0.792,0.345,0.546,-0.916,-4.395,-2.747
0.773,0.364,0.505,0.732,5.188,-0.671
0.790,0.371,0.510,-1.221,3.540,-0.916
0.771,0.338,0.488,-1.343,3.418,1.282
0.770,0.333,0.523,2.258,2.380,1.099
0.793,0.409,0.509,3.967,3.174,-2.808
0.796,0.373,0.521,-0.183,2.625,-6.165
0.790,0.316,0.501,-2.930,3.113,0.732
0.797,0.344,0.500,2.075,-0.061,1.404
0.789,0.391,0.507,9.338,-3.784,-5.310
0.774,0.371,0.490,4.211,-7.202,-12.756
0.790,0.319,0.512,2.441,-2.563,-5.371
0.786,0.341,0.510,2.991,-2.930,-0.305
0.787,0.349,0.530,1.648,-1.587,-0.977
0.791,0.364,0.523,0.061,-1.831,-2.258
0.791,0.349,0.517,0.061,0.427,-3.418
0.784,0.337,0.514,2.991,-2.014,-5.249
0.779,0.338,0.534,-0.061,-1.099,-7.385
0.793,0.324,0.525,-1.404,4.944,-11.536
0.791,0.285,0.505,0.488,4.822,-5.493
0.795,0.341,0.497,-0.977,2.747,3.235
0.797,0.348,0.517,-1.404,-1.282,-0.183
0.797,0.324,0.518,4.639,-0.793,-5.432
0.807,0.318,0.542,0.549,-2.747,-7.446
0.794,0.333,0.494,2.930,-0.244,-7.141
0.791,0.326,0.505,0.366,-3.601,-4.211
0.793,0.282,0.532,4.639,0.183,-0.977
0.799,0.348,0.510,0.366,0.793,1.770
0.800,0.288,0.527,0.671,-4.089,-4.150
0.802,0.275,0.534,2.991,-2.808,-3.052

0.792,0.324,0.508,-0.793,-0.305,1.160
0.795,0.315,0.529,2.625,-1.526,-0.061
0.790,0.318,0.530,0.122,-2.075,0.488
0.787,0.321,0.514,0.549,0.000,-0.916
0.790,0.284,0.535,0.366,1.221,1.709
0.793,0.316,0.524,1.038,0.305,2.136
0.799,0.337,0.540,1.404,-1.282,-0.671
0.786,0.299,0.526,2.319,-2.563,-1.160
0.797,0.273,0.554,0.793,0.305,1.648
0.811,0.207,0.598,0.427,6.287,9.094
0.830,0.493,0.666,3.845,16.907,11.719
1.075,1.546,0.865,8.301,39.978,-32.593
0.618,1.690,-0.081,13.550,50.781,-186.340
0.702,0.409,-0.133,-71.838,23.865,-209.351
0.539,-0.024,0.105,-57.983,-39.551,-205.566
0.507,-0.685,0.731,-13.855,-111.938,-215.393
0.649,-1.482,1.555,-82.397,-83.252,-124.817
0.580,-1.875,1.600,-60.181,5.127,7.446
0.380,-1.585,1.120,-14.404,63.293,160.461
0.272,-1.276,1.090,19.958,82.764,270.996
-0.028,-0.597,1.019,61.401,144.287,365.967
-0.087,0.235,0.811,61.584,169.800,421.326
-0.287,1.345,0.565,-52.429,156.677,407.410
-0.474,2.042,-0.380,-33.142,204.529,375.854
-0.445,2.233,-1.003,-26.367,139.404,275.940
-0.291,2.604,-0.770,61.462,106.262,55.786
-0.370,2.437,-1.111,83.618,40.161,-98.816
-0.345,2.291,-0.656,-28.320,-73.303,-201.904
-0.195,2.286,-0.052,-101.929,-143.799,-296.509
-0.336,1.473,0.430,-71.655,-171.204,-397.827
-0.335,0.826,0.531,-54.260,-167.786,-487.671
-0.561,-0.306,0.448,-97.229,-193.115,-574.768
-0.005,-1.427,1.099,-156.250,-265.625,-316.467
0.189,-1.305,1.465,-40.894,-189.148,-138.916
0.286,-1.687,1.267,-8.484,-71.106,-106.384
0.268,-1.810,2.024,-77.759,89.355,-28.442
0.619,-1.569,1.301,-24.963,120.178,53.833
0.490,-1.384,1.205,11.169,77.454,187.500
0.517,-0.769,1.285,18.188,107.849,249.145
0.391,-0.189,1.117,4.761,185.364,296.509
0.208,0.082,0.784,32.410,220.520,299.927
-0.047,0.488,0.469,52.307,231.689,317.505
-0.092,1.405,-0.078,41.565,269.226,324.463
-0.307,1.724,-1.138,14.160,198.486,260.498
-0.032,1.338,-0.601,28.137,-4.700,138.428
0.018,2.301,-0.739,26.855,22.461,102.783
-0.019,2.435,-1.342,60.852,0.732,-32.837
0.104,1.622,-0.485,22.217,-110.657,-128.113
0.186,1.704,-0.223,37.842,-121.216,-176.392
0.057,1.483,-0.103,7.629,-137.512,-264.099
-0.059,0.860,0.135,-10.010,-153.870,-317.871
-0.070,0.174,0.263,-33.020,-167.297,-321.167
0.125,0.079,0.826,-33.997,-195.740,-288.025
0.221,-0.789,1.069,10.498,-201.111,-276.672
0.365,-1.291,1.318,-3.235,-149.048,-264.771
0.424,-1.555,1.371,-1.160,-96.680,-155.334
0.443,-1.742,1.532,-63.293,-30.640,-54.810
0.402,-1.554,1.539,-34.546,-0.549,58.960
0.447,-1.220,1.264,-8.789,61.951,131.409
0.395,-1.139,0.935,-2.991,84.106,188.965
0.334,-0.982,0.887,19.348,106.079,275.818
0.204,-0.339,0.887,58.716,126.038,342.651
-0.038,0.452,0.811,68.665,147.705,350.769
-0.039,1.019,0.640,67.993,138.184,328.125
0.047,1.614,0.262,13.489,131.165,266.052
0.063,1.723,-0.294,26.245,121.887,215.088
0.122,1.686,-0.246,16.052,36.804,132.324
0.242,2.322,-0.126,7.141,36.804,18.311
0.179,1.986,-0.391,34.912,-24.414,-89.844
0.223,1.633,-0.065,26.855,-78.247,-158.630
0.226,1.436,0.124,-6.958,-93.384,-217.163
0.145,1.048,0.279,-19.714,-104.553,-255.798
0.125,0.516,0.485,-2.319,-121.460,-289.673
0.220,-0.096,0.567,29.419,-135.315,-294.189
0.311,-0.604,0.921,-13.306,-125.793,-257.324
0.580,-0.540,1.338,-50.964,-98.450,-180.664
0.573,-0.946,1.037,2.869,-47.668,-164.124
0.646,-1.043,1.032,-32.227,-26.611,-87.158
0.686,-0.891,1.049,-38.757,-5.493,-24.841
0.545,-1.048,0.855,10.376,17.639,31.433
0.623,-0.721,0.923,5.737,31.799,110.352
0.569,-0.544,0.774,34.424,42.969,171.082
0.561,0.065,0.837,3.601,93.323,207.153
0.521,0.360,0.471,-16.052,140.381,188.293
0.631,0.886,0.433,26.917,91.492,193.481
0.592,0.967,0.508,-5.981,79.102,134.827
0.665,0.915,0.141,4.822,92.590,91.003
0.720,0.808,0.295,18.799,14.587,64.880
0.632,0.875,0.255,-19.897,-2.991,35.278
0.703,1.034,0.305,-29.663,-25.269,-6.653
0.728,0.749,0.401,9.949,-21.240,-28.625
0.710,0.671,0.370,7.385,-18.005,-47.119
0.723,0.604,0.416,-6.958,-18.066,-73.914
0.731,0.285,0.472,-5.737,-17.090,-71.899
0.835,0.183,0.593,-9.155,-16.479,-44.983
0.809,0.242,0.572,-10.193,-1.343,-11.963
0.797,0.239,0.544,-5.554,-2.869,-9.094
0.827,0.178,0.561,1.953,-5.127,2.197
0.819,0.333,0.538,1.160,-0.732,5.554
0.813,0.331,0.528,-0.061,4.456,3.296
0.804,0.313,0.519,-0.061,5.615,6.470
0.800,0.389,0.459,-4.089,10.620,11.414
0.800,0.439,0.448,-8.911,10.132,9.216
0.775,0.405,0.452,-7.690,2.747,3.967
0.780,0.383,0.463,-3.845,1.343,1.709
0.759,0.441,0.422,3.906,6.104,7.019
0.762,0.415,0.442,7.812,15.625,-0.793
0.793,0.380,0.439,14.709,15.198,-7.019
0.883,0.387,0.484,15.564,13.062,-12.146
0.806,0.362,0.437,17.029,5.920,-5.493
0.828,0.363,0.480,1.770,-5.249,-3.601
0.820,0.366,0.502,5.371,-3.540,-3.784
0.806,0.370,0.466,5.737,0.916,-0.488
0.804,0.368,0.439,2.930,0.061,1.709
0.800,0.359,0.443,1.282,-1.343,4.395
0.805,0.384,0.461,-0.305,-2.075,0.732
0.808,0.385,0.469,3.784,-4.089,-4.822
0.800,0.394,0.454,0.610,-3.296,-6.531
0.802,0.346,0.470,-2.319,-2.930,-4.578
0.805,0.347,0.479,-0.366,-0.366,-2.014
0.812,0.393,0.468,-1.160,-4.272,-12.512
0.821,0.359,0.467,-3.906,-12.756,-23.437
0.809,0.306,0.494,-4.883,-6.897,-17.822
0.804,0.313,0.458,-1.892,4.333,-2.014
0.817,0.324,0.474,-3.906,1.892,-0.916

0.822,0.374,0.459,0.183,1.038,1.465
0.816,0.335,0.477,1.770,-3.235,-1.465
0.813,0.338,0.479,1.282,-2.075,0.549
0.817,0.354,0.484,-2.075,4.456,4.944
0.810,0.384,0.436,-1.221,4.333,1.892
0.810,0.337,0.467,1.770,-2.502,-2.747
0.806,0.340,0.468,2.441,-3.967,-1.343
0.810,0.346,0.466,2.136,-2.258,1.892
0.808,0.380,0.469,1.709,-2.258,-0.366
0.812,0.385,0.464,-0.305,0.427,-3.418
0.844,0.457,0.481,-3.723,-2.319,-10.925
0.905,0.504,0.555,-7.446,-8.301,-30.457
0.951,0.444,0.651,10.437,-24.841,-57.495
0.850,0.144,0.618,-113.586,-46.997,-61.462
0.948,-0.623,1.418,-239.502,73.181,50.232
0.853,-1.163,1.185,-42.114,159.546,121.948
0.373,-0.972,0.884,11.353,198.608,271.790
0.107,0.327,0.704,4.272,226.196,335.022
-0.227,1.333,0.090,-48.523,276.550,336.121
-0.477,2.362,-1.316,10.742,253.540,287.048
-0.501,3.305,-1.674,28.503,47.729,55.786
-0.377,2.146,-0.874,35.889,-76.599,-156.677
-0.294,2.038,-0.718,3.174,-90.515,-226.990
-0.337,1.726,-0.244,-23.315,-143.311,-298.523
-0.456,1.213,-0.029,-41.809,-187.500,-383.545
-0.599,0.591,0.182,-50.659,-234.070,-440.674
-0.522,-0.125,0.578,-49.316,-241.028,-457.458
-0.241,-1.229,1.133,-61.890,-229.492,-392.029
0.342,-1.781,1.812,-87.708,-168.091,-294.739
0.346,-1.947,1.131,21.973,-77.454,-186.096
0.435,-1.879,1.456,-2.563,-70.374,-44.678
0.486,-1.724,1.619,-27.588,47.791,72.021
0.556,-1.203,1.321,-2.075,163.391,144.409
0.514,-0.924,1.035,24.963,179.443,194.946
0.303,-0.733,1.164,66.467,151.855,276.001
0.076,0.132,0.921,44.495,205.322,371.460
-0.228,1.039,0.231,42.236,242.249,372.742
-0.221,1.413,-0.500,22.583,185.120,375.549
-0.138,2.184,-0.887,180.237,147.034,262.085
-0.015,1.509,-0.851,87.524,9.827,123.291
0.073,2.363,-0.603,55.847,8.850,42.480
0.174,2.456,-0.696,41.504,17.944,-123.596
0.205,1.504,-0.684,36.194,-68.604,-118.286
0.291,1.407,-0.243,47.729,-116.882,-146.851
0.215,1.517,-0.003,9.949,-130.249,-220.337
0.071,1.028,0.314,-37.170,-119.385,-297.913
0.170,0.818,0.442,-75.073,-94.421,-398.926
0.177,0.211,0.463,-77.087,-164.001,-304.810
0.134,-0.174,0.742,-85.144,-189.697,-264.954
0.210,-0.746,1.329,-89.905,-167.969,-271.790
0.283,-1.623,1.579,-52.307,-86.121,-248.840
0.332,-2.144,1.688,-53.223,46.997,-73.730
0.427,-1.638,1.150,-49.561,65.918,16.541
0.479,-1.141,1.063,-12.756,51.025,86.670
0.464,-1.063,0.982,14.893,62.073,109.070
0.406,-1.132,1.009,19.958,81.116,178.772
0.333,-0.799,0.882,56.824,102.905,283.997
0.125,0.051,0.783,83.496,141.174,359.924
0.124,0.770,0.532,77.209,157.043,349.792
0.043,0.805,0.227,70.923,168.701,317.566
0.010,1.280,0.206,72.083,144.409,309.937
0.113,1.838,-0.203,104.797,147.278,275.452
0.027,2.062,-0.616,30.884,82.703,153.992
0.157,2.029,-0.048,-14.099,8.362,17.273
0.235,2.169,-0.421,28.076,11.230,-94.299
0.159,1.910,-0.319,10.315,-63.171,-172.424
0.165,1.586,-0.104,-39.673,-88.318,-236.145
0.026,1.269,0.150,-38.513,-166.809,-306.213
-0.090,0.842,0.314,-55.298,-173.218,-351.929
-0.021,0.259,0.468,-46.448,-196.655,-351.990
0.070,-0.198,0.874,-74.585,-194.519,-328.186
0.212,-0.839,1.330,-78.186,-131.592,-274.048
0.432,-1.345,1.438,-56.091,-59.570,-210.144
0.395,-1.308,1.280,-33.691,-26.550,-114.075
0.456,-1.412,1.424,-45.532,6.104,-38.513
0.456,-1.442,1.142,-0.244,40.100,27.039
0.360,-1.482,0.935,17.761,40.405,111.755
0.337,-1.237,1.014,24.170,87.891,201.172
0.229,-0.746,0.943,47.058,105.164,297.485
0.170,-0.134,0.817,56.091,127.197,335.632
0.169,0.606,0.640,39.734,145.447,345.581
0.235,1.047,0.413,-60.913,165.527,280.396
0.262,0.993,0.309,147.278,162.354,286.194
0.063,1.365,-0.175,104.858,170.898,317.139
0.030,2.093,-0.377,3.540,95.520,213.867
0.156,2.166,-0.214,5.737,39.185,54.077
0.204,1.708,-0.205,71.716,10.254,-50.171
0.251,1.570,-0.166,19.836,-43.945,-106.262
0.275,1.485,0.078,-15.259,-85.144,-166.260
0.254,1.045,0.271,-5.371,-121.155,-244.507
0.223,0.503,0.312,15.137,-137.634,-312.073
0.333,0.040,0.764,6.287,-192.810,-321.655
0.490,-0.464,1.106,-19.348,-147.278,-275.452
0.675,-0.745,1.095,-91.370,-49.622,-191.284
0.658,-0.898,0.966,-60.730,-10.559,-128.601
0.715,-0.816,0.819,-30.396,-7.080,-51.208
0.724,-0.770,0.789,3.052,-8.728,-11.658
0.708,-0.803,0.761,16.052,-10.620,49.561
0.660,-0.628,0.790,24.658,7.385,106.995
0.708,-0.383,0.724,19.409,24.719,140.442
0.695,0.031,0.754,2.930,49.377,168.640
0.684,0.526,0.587,2.808,57.434,133.301
0.679,0.517,0.421,7.141,49.805,107.239
0.733,0.736,0.504,8.606,34.363,75.867
0.711,0.774,0.372,5.798,44.922,28.259
0.730,0.619,0.296,18.616,21.851,1.404
0.789,0.609,0.444,15.381,-0.122,-8.911
0.826,0.653,0.497,9.583,-8.118,-29.663
0.816,0.387,0.510,5.859,-15.503,-41.626
0.793,0.273,0.537,-2.197,-16.296,-11.719
0.807,0.258,0.557,-3.357,-11.292,-1.709
0.803,0.237,0.577,2.747,-12.268,-4.700
0.796,0.233,0.572,3.967,-9.583,-4.211
0.788,0.206,0.577,-2.075,-3.357,-0.916
0.812,0.251,0.590,-4.211,2.869,5.920
0.797,0.276,0.563,-1.404,1.587,1.831
0.798,0.265,0.575,2.197,-1.526,-1.953
0.782,0.260,0.548,4.028,-0.122,0.000
0.796,0.310,0.554,1.831,1.465,5.249
0.780,0.303,0.517,0.793,1.465,2.441
0.787,0.300,0.544,1.953,-2.136,1.953
0.787,0.301,0.546,2.380,-1.343,2.136
0.790,0.279,0.550,0.244,-2.380,1.526
0.796,0.292,0.547,1.221,-1.404,1.526
0.785,0.301,0.539,-2.502,2.380,-1.160

0.868,0.575,0.524,12.268,30.762,-15.198
0.818,0.612,0.387,0.793,12.390,-20.325
0.860,0.733,0.442,-23.499,-4.700,-42.786
0.758,0.277,0.402,-47.241,16.907,-30.884
0.779,0.097,0.455,-20.813,-0.366,-15.747
0.788,0.179,0.487,-5.188,-3.845,-24.292
0.845,0.500,0.581,-12.024,-8.911,-47.241
0.857,0.505,0.468,-12.268,1.892,-64.636
0.943,0.730,0.517,-12.878,5.859,-94.116
0.782,0.703,0.336,-0.549,-19.897,-161.804
0.684,0.213,0.417,-19.043,-51.819,-199.707
0.586,-0.302,0.453,-20.325,-52.124,-205.444
0.571,-0.726,0.666,-11.292,-58.716,-164.490
0.541,-0.967,0.954,-19.104,-41.565,-107.056
0.573,-1.340,1.044,-19.775,-5.554,-39.734
0.562,-1.674,1.112,-7.690,33.020,72.021
0.377,-1.288,1.103,4.883,70.557,206.909
0.271,-0.768,0.918,33.997,107.849,287.109
0.113,-0.538,0.726,48.462,123.779,344.910
-0.097,-0.006,0.678,57.312,136.902,421.631
-0.227,1.417,0.466,8.240,177.368,462.707
-0.316,2.104,-0.642,-92.773,215.088,437.012
-0.337,2.561,-0.806,39.612,148.193,287.231
-0.088,2.092,-0.332,74.646,16.724,-22.949
-0.074,1.722,-0.340,47.668,-3.418,-76.538
0.036,2.118,-0.205,-22.766,-44.922,-161.194
0.079,1.888,-0.164,-29.663,-105.286,-252.075
0.070,1.330,0.023,-12.024,-171.387,-348.083
0.129,0.911,0.200,-1.404,-197.510,-382.385
0.012,0.380,0.392,-13.428,-220.276,-397.461
0.126,-0.208,0.853,-91.858,-214.783,-411.011
0.212,-0.176,1.270,-65.613,-118.774,-376.709
0.127,-1.235,1.119,-86.304,-33.081,-213.806
0.182,-1.065,1.241,-80.811,26.245,-68.359
0.438,-1.202,1.201,-57.251,45.959,-36.682
0.495,-1.432,1.175,-29.114,63.416,12.634
0.512,-1.012,0.993,6.592,-15.320,47.913
0.387,-0.913,1.114,2.686,47.852,108.704
0.527,-0.697,1.012,15.381,105.469,122.925
0.355,-0.550,0.970,31.494,138.123,150.818
0.351,-0.408,0.791,30.334,155.457,203.369
0.514,0.100,0.312,-11.230,109.314,265.503
0.234,0.574,0.430,54.016,92.651,331.665
0.179,0.782,0.102,37.476,162.109,375.427
0.108,1.349,-0.001,15.869,127.747,376.038
0.049,1.542,-0.179,-20.630,111.267,247.559
0.079,2.299,-0.680,1.770,137.512,175.903
0.199,2.110,-0.608,7.141,17.334,36.621
0.185,1.707,-0.546,50.781,-7.385,-76.782
0.187,1.750,-0.388,27.283,-51.697,-141.785
0.176,1.526,-0.124,-16.479,-81.360,-202.576
0.113,1.258,0.021,21.973,-115.479,-266.724
0.131,0.836,0.120,22.888,-145.996,-321.716
0.076,0.255,0.265,20.569,-175.842,-340.759
0.180,0.110,0.478,-25.269,-194.885,-325.073
0.179,-0.393,0.978,-102.295,-164.124,-265.503
0.419,-0.766,1.618,-49.805,-43.152,-224.060
0.463,-1.259,1.159,-0.122,-42.664,-178.162
0.503,-1.157,1.127,-53.162,7.996,-66.406
0.401,-1.072,1.173,-60.425,83.008,-5.554
0.520,-0.980,0.995,-19.409,154.785,61.829
0.707,-0.698,0.857,10.132,14.832,118.408
0.543,-0.656,0.964,20.447,52.490,144.531
0.517,-0.615,0.922,23.926,117.371,213.562
0.415,-0.393,0.813,41.443,130.737,269.775
0.273,0.116,0.723,40.405,160.095,309.875
0.107,0.647,0.429,16.113,188.049,307.434
0.095,1.045,0.215,-15.259,199.097,293.823
-0.031,1.247,-0.203,-53.528,210.937,284.119
-0.063,1.397,-0.575,5.676,172.791,268.311
-0.051,1.936,-0.729,80.383,104.675,200.806
-0.054,2.268,-0.784,46.875,38.391,94.055
-0.066,1.763,-0.639,18.555,2.136,-49.805
0.052,1.573,-0.478,14.648,-40.649,-104.126
0.104,1.517,-0.345,11.230,-71.228,-163.513
0.086,1.265,-0.222,-0.549,-108.337,-225.281
0.113,0.806,-0.085,0.000,-147.461,-263.916
0.182,0.842,0.009,5.920,-177.124,-258.667
0.243,0.488,0.374,4.028,-224.609,-283.447
0.297,0.133,0.491,16.296,-189.087,-273.254
0.305,-0.041,0.660,52.429,-161.804,-278.809
0.323,-0.601,0.692,48.828,-157.654,-281.433
0.509,-0.961,1.453,-46.875,-143.372,-191.406
0.532,-1.034,1.253,-8.972,-59.204,-111.633
0.641,-0.764,1.188,-4.944,-32.288,-52.185
0.501,-0.979,1.351,-48.279,5.249,-22.888
0.603,-0.980,1.058,-25.696,58.289,37.903
0.645,-0.732,0.837,9.277,61.646,74.524
0.694,-0.514,0.695,-16.174,61.279,113.953
0.577,-0.415,0.860,-23.193,64.209,124.756
0.455,-0.617,0.845,0.610,91.553,179.260
0.302,-0.097,0.710,-10.010,115.356,282.593
0.343,0.656,0.437,-17.517,183.716,296.448
0.395,0.776,0.209,13.184,154.541,254.333
0.406,0.750,0.206,73.242,95.947,229.553
0.297,0.891,0.079,27.832,85.999,257.874
0.230,1.123,0.007,5.432,64.880,273.193
0.159,1.650,-0.090,11.658,74.158,248.962
0.178,1.728,-0.122,14.648,35.400,91.370
0.200,1.611,-0.094,46.326,20.996,10.376
0.204,1.561,-0.136,19.836,-5.493,-38.269
0.209,1.543,-0.080,20.386,-27.283,-94.299
0.259,1.373,0.052,21.057,-56.885,-154.968
0.312,1.247,0.260,48.340,-83.801,-217.163
0.228,0.824,0.293,60.852,-99.792,-277.283
0.310,0.708,0.547,27.527,-103.638,-287.781
0.290,0.346,0.635,24.902,-80.750,-305.298
0.375,-0.187,0.408,19.104,-54.260,-294.495
0.425,-0.190,0.466,8.850,-76.416,-247.192
0.460,-0.459,0.419,33.630,-84.656,-244.019
0.418,-0.557,0.866,9.277,-114.075,-199.341
0.444,-0.854,1.096,7.385,-80.139,-167.603
0.537,-0.910,0.965,-9.766,-44.678,-101.807
0.529,-0.824,1.120,-14.160,-10.742,-69.641
0.544,-1.347,0.996,-34.546,5.737,7.812
0.545,-1.080,0.993,-21.484,25.146,85.876
0.522,-0.827,0.860,-14.160,34.546,124.939
0.466,-0.646,0.877,-33.203,54.321,175.842
0.443,-0.537,0.872,-29.480,63.232,204.285
0.399,-0.531,0.816,-4.944,89.661,249.145
0.349,0.037,0.617,20.874,103.394,278.625
0.226,0.195,0.497,15.442,104.980,305.237
0.266,0.628,0.585,14.465,93.750,304.016
0.233,1.008,0.513,-3.540,118.530,309.387
0.075,1.416,-0.077,-1.526,136.230,313.843

0.770,0.239,0.587,-11.597,1.465,-24.170
0.775,0.115,0.575,-4.822,3.174,-15.503
0.770,0.038,0.570,-4.089,1.648,-2.441
0.763,0.118,0.605,5.066,-3.357,4.456
0.755,0.188,0.642,8.667,-3.357,1.221
0.779,0.106,0.638,4.211,-4.089,-2.563
0.785,0.080,0.624,2.197,-1.953,4.883
0.803,0.154,0.640,6.104,1.953,14.282
0.864,0.674,0.805,-17.456,4.822,3.357
0.826,0.926,0.639,-25.146,29.541,-62.439
0.794,0.589,0.359,-26.306,55.908,-97.107
0.807,0.733,0.505,-45.898,32.776,-137.878
0.694,0.471,0.331,-44.495,27.527,-196.533
0.646,-0.215,0.276,12.451,-28.198,-207.336
0.566,-0.298,0.361,42.114,-52.917,-199.951
0.565,-0.684,0.616,45.349,-69.885,-172.485
0.564,-1.118,0.956,17.761,-53.223,-108.337
0.646,-1.365,1.222,-38.391,-5.798,-16.541
0.478,-1.521,1.380,-57.373,36.743,104.919
0.449,-1.241,1.050,-4.150,88.318,195.862
0.254,-1.288,1.012,15.503,93.201,285.889
0.105,-0.578,0.937,52.856,143.738,364.258
0.052,-0.077,0.727,51.392,189.026,384.155
-0.102,0.263,0.365,2.380,203.125,418.396
-0.178,0.909,0.289,-44.373,179.871,434.998
-0.347,1.485,-0.279,-19.043,225.281,394.958
-0.193,1.599,-0.527,-58.777,179.993,248.291
-0.159,1.174,-0.323,-9.521,104.126,153.137
-0.249,1.708,-0.552,37.781,52.612,126.099
-0.203,2.271,-0.648,-1.282,15.930,58.105
-0.185,1.987,-0.537,4.395,-19.775,-69.580
-0.161,1.793,-0.479,21.912,-69.519,-138.306
-0.120,1.695,-0.285,25.391,-98.572,-202.026
-0.120,1.355,-0.041,14.099,-126.526,-263.306
-0.124,0.998,0.066,10.803,-145.264,-296.143
-0.139,0.575,0.088,-13.977,-179.871,-323.425
-0.109,0.229,0.347,-28.442,-201.294,-337.341
-0.004,-0.228,0.742,-49.988,-221.069,-343.994
0.247,-0.790,1.139,-12.207,-227.539,-338.440
0.357,-1.458,0.831,50.354,-140.381,-257.446
0.437,-0.986,1.042,33.081,-134.033,-161.011
0.383,-1.158,1.055,59.631,-100.464,-148.987
0.450,-1.346,1.330,-2.869,-68.542,-93.018
0.508,-1.456,1.373,-42.542,-15.381,-17.883
0.539,-1.087,1.318,-42.603,33.203,69.824
0.549,-0.853,1.153,-20.996,74.524,130.432
0.559,-0.872,1.142,-22.461,106.079,182.739
0.452,-0.830,0.903,-38.574,129.272,259.521
0.286,-0.384,0.763,-35.583,143.433,312.073
0.111,-0.154,0.466,-31.433,144.714,344.543
-0.027,0.104,0.326,-59.875,113.220,337.585
-0.141,0.401,0.374,-27.100,91.064,326.233
-0.243,0.791,0.122,-33.813,72.754,311.462
-0.238,1.389,-0.344,-68.787,44.128,296.936
-0.143,1.892,-0.027,-96.985,24.963,256.958
-0.130,1.826,-0.050,-70.068,35.400,158.630
-0.139,2.095,-0.648,-11.841,80.200,64.819
-0.092,2.027,-0.675,23.071,35.950,-15.259
-0.012,1.788,-0.339,60.181,0.244,-86.121
-0.032,1.630,-0.088,87.646,-20.142,-159.180
-0.007,1.614,0.057,64.758,-16.113,-213.074
0.031,1.219,-0.032,60.120,-29.297,-255.737
-0.018,1.141,0.184,79.529,-77.637,-297.302
-0.065,0.675,0.309,55.969,-81.665,-333.740
-0.017,0.371,0.398,24.170,-93.750,-344.360
-0.076,-0.078,0.617,34.058,-112.732,-360.046
-0.010,-1.068,0.965,-34.058,-145.935,-323.791
0.355,-1.234,1.570,-87.585,-147.461,-215.332
0.432,-1.420,0.929,27.710,-39.490,-174.805
0.424,-1.509,1.076,0.061,-28.381,-112.488
0.541,-1.549,1.006,-21.240,59.387,-9.644
0.492,-1.418,0.978,-22.949,2.197,93.140
0.471,-1.197,0.908,-18.066,32.776,176.514
0.431,-0.824,0.868,-10.132,60.913,216.858
0.331,-0.583,0.810,-11.536,74.097,245.422
0.197,-0.396,0.672,-11.414,74.463,305.542
0.035,0.002,0.617,-21.484,72.205,351.929
-0.135,0.793,0.700,-62.317,96.497,339.966
-0.127,1.123,0.276,-33.752,127.319,310.669
-0.055,1.186,-0.061,-5.798,68.665,307.800
-0.125,1.691,0.333,-35.095,45.715,306.885
-0.209,1.896,0.168,-41.626,68.298,195.312
-0.202,1.999,-0.164,24.475,73.547,91.858
-0.171,1.966,-0.288,60.974,55.054,11.902
-0.149,1.633,-0.092,45.166,15.625,-85.999
-0.239,1.748,-0.068,13.794,-19.348,-109.558
-0.194,1.674,0.070,45.837,-24.475,-203.796
-0.044,1.166,0.394,101.501,-46.021,-299.927
-0.106,0.636,0.568,154.541,-69.214,-378.479
0.049,0.048,0.433,116.821,-43.152,-376.953
0.146,-0.339,0.545,51.941,-64.331,-337.769
0.320,-0.999,0.623,-8.301,-59.448,-270.569
0.632,-0.892,1.139,-37.537,-77.026,-168.640
0.642,-0.932,0.739,63.049,-38.818,-129.639
0.656,-1.315,0.826,18.860,-81.848,-49.377
0.840,-0.835,1.150,-62.317,-43.457,37.964
0.746,-0.476,1.019,-3.235,3.967,63.843
0.702,-0.681,0.759,22.339,14.160,45.837
0.629,-0.707,0.787,-4.456,-7.935,102.783
0.530,-0.612,0.799,-35.461,-6.531,186.157
0.395,-0.245,0.715,-53.772,24.109,232.056
0.310,0.210,0.683,-49.622,27.466,240.234
0.270,0.508,0.653,-43.457,41.382,217.957
0.273,0.650,0.653,-27.954,36.682,201.782
0.224,0.753,0.524,-8.240,26.184,192.383
0.199,1.092,0.513,-36.560,10.437,174.072
0.212,1.267,0.530,-46.082,10.559,129.272
0.226,1.246,0.485,-36.804,20.691,65.735
0.237,1.263,0.452,-21.118,0.916,23.804
0.254,1.316,0.553,-15.686,-12.451,0.183
0.328,1.171,0.604,19.348,0.732,-46.448
0.349,0.825,0.559,56.824,8.667,-103.943
0.383,0.717,0.580,55.969,-16.174,-104.919
0.401,0.592,0.607,36.438,-20.264,-105.652
0.472,0.330,0.559,54.138,-22.644,-104.248
0.520,0.210,0.671,45.715,-29.541,-96.497
0.556,0.215,0.817,26.245,-24.902,-77.026
0.590,0.090,0.768,29.419,-14.587,-59.509
0.609,0.061,0.831,18.066,-21.118,-30.762
0.600,0.303,0.907,-10.010,-8.301,-5.981
0.586,0.372,0.787,-21.790,13.123,-6.042
0.611,0.252,0.731,-6.897,8.789,-5.920
0.592,0.255,0.701,10.986,-0.793,7.507
0.557,0.487,0.764,0.000,0.854,12.634
0.545,0.410,0.691,-11.963,12.695,0.549

0.554,0.411,0.714,1.465,-0.977,0.977
0.551,0.412,0.728,0.732,-2.319,2.502
0.545,0.433,0.743,-1.831,-0.671,2.563
0.549,0.435,0.742,-0.488,0.854,-1.343
0.554,0.388,0.726,0.427,-0.305,0.305
0.547,0.404,0.741,-0.061,0.610,3.235
0.550,0.432,0.745,-0.244,1.404,2.991
0.548,0.440,0.742,-1.221,3.479,-1.404
0.551,0.392,0.716,0.427,3.052,-0.732
0.554,0.438,0.751,-0.122,1.160,2.136
0.550,0.585,0.803,-4.761,5.188,-1.831
0.543,0.669,0.837,-7.324,16.907,-19.897
0.558,0.732,0.790,13.306,25.940,-33.020
0.542,1.205,1.011,-23.437,27.039,-56.213
0.509,1.299,0.868,-33.875,63.782,-104.614
0.390,0.975,0.514,19.287,88.074,-169.922
0.448,0.395,0.325,23.987,52.002,-217.407
0.467,0.174,0.489,3.601,35.400,-245.239
0.520,-0.550,0.274,37.720,18.677,-255.188
0.664,-0.907,0.644,-12.756,-35.461,-190.247
0.699,-1.254,1.059,-61.951,-30.640,-130.981
0.697,-1.490,1.200,-93.323,-2.258,-49.744
0.575,-1.546,1.051,-70.740,30.884,47.241
0.468,-1.481,0.776,-60.059,51.086,143.921
0.365,-1.393,0.638,-54.749,54.565,245.850
0.068,-0.952,0.619,-69.946,52.551,339.722
-0.202,0.015,0.881,-62.927,93.567,387.451
-0.398,0.926,0.480,-9.277,180.664,377.197
-0.299,1.628,-0.608,36.743,142.456,325.378
-0.230,1.972,-0.138,12.878,52.490,232.788
-0.064,2.449,0.121,90.637,71.960,80.627
0.002,1.887,0.019,112.915,77.881,-29.297
0.109,1.958,0.263,40.405,54.565,-79.407
0.141,1.785,0.152,27.710,-2.869,-132.935
0.152,1.411,0.321,25.330,-41.626,-175.354
0.144,1.291,0.403,-2.563,-36.682,-195.801
0.135,1.144,0.634,-49.988,-36.621,-246.643
0.120,0.487,0.624,-54.504,-24.902,-293.335
0.234,-0.170,0.715,-67.017,-44.556,-280.090
0.548,-0.375,0.986,-115.295,-59.998,-250.305
0.539,-0.846,0.783,-135.925,-31.616,-278.320
0.702,-0.945,0.797,-129.578,-43.945,-189.758
0.711,-0.900,0.808,-73.059,-17.090,-125.427
0.769,-0.972,0.837,-47.241,-5.615,-80.505
0.774,-1.050,0.850,-41.687,4.150,-39.856
0.816,-1.194,0.839,-3.601,25.085,23.315
0.756,-1.067,0.696,22.339,40.588,106.934
0.656,-0.899,0.736,27.649,35.645,179.077
0.543,-0.568,0.714,30.457,41.260,253.479
0.330,0.051,0.795,12.756,69.458,310.120
0.321,0.264,0.567,21.729,55.542,288.025
0.062,0.676,0.523,-6.958,94.299,309.326
-0.020,1.144,0.113,36.682,137.268,289.856
-0.062,1.796,-0.043,100.159,97.351,238.342
-0.023,2.128,0.096,78.857,54.077,148.132
-0.041,2.041,-0.135,62.622,34.485,29.236
0.010,1.942,-0.127,55.542,-4.883,-71.228
0.088,1.434,0.008,64.697,-25.513,-132.385
0.133,1.268,0.133,37.903,-33.081,-167.297
0.156,1.115,0.252,-9.583,-41.504,-199.097
0.216,0.893,0.456,-22.705,-53.284,-223.511
0.277,0.661,0.625,-7.141,-51.575,-250.366
0.364,0.210,0.683,-3.784,-48.523,-272.217
0.421,-0.146,0.771,-59.875,-61.829,-248.230
0.624,-0.626,0.843,-64.575,-77.087,-204.285
0.747,-0.838,1.146,-60.852,-78.003,-200.867
0.765,-1.122,1.061,-30.457,-31.128,-143.433
0.830,-1.136,1.126,-77.454,0.000,-81.299
0.838,-1.203,0.722,-32.349,49.561,-7.507
0.814,-1.019,0.588,-8.545,37.903,67.749
0.708,-0.886,0.545,31.128,29.907,143.982
0.576,-0.442,0.690,41.443,19.653,208.252
0.484,0.089,0.660,8.545,37.720,236.084
0.401,0.136,0.405,-3.784,36.987,243.591
0.268,0.254,0.516,27.710,27.466,279.907
0.120,1.301,0.836,2.319,31.006,298.645
0.039,1.561,0.073,43.579,86.609,241.455
0.036,1.653,-0.181,1.526,35.400,158.020
0.173,1.900,0.299,-36.499,-29.053,45.044
0.233,1.431,0.357,56.641,-13.977,-20.325
0.346,1.073,0.261,68.420,-15.259,-64.209
0.397,0.914,0.420,24.780,-31.433,-68.726
0.442,0.813,0.523,6.104,-38.269,-77.454
0.518,0.577,0.633,27.405,-40.405,-91.125
0.599,0.353,0.683,33.142,-34.546,-85.754
0.635,0.279,0.700,20.996,-25.757,-63.416
0.661,0.249,0.699,15.198,-14.343,-43.091
0.683,0.215,0.670,3.906,-10.132,-23.254
0.677,0.295,0.690,1.343,-4.944,-10.071
0.662,0.369,0.727,5.798,-4.395,-2.197
0.656,0.360,0.694,3.784,0.732,2.380
0.644,0.418,0.688,-2.686,2.258,9.705
0.630,0.435,0.621,1.343,10.254,11.719
0.609,0.444,0.582,0.977,10.620,13.855
0.589,0.560,0.585,-9.644,11.292,23.621
0.568,0.608,0.565,-17.212,10.071,20.935
0.572,0.582,0.536,-13.550,-4.761,7.446
0.584,0.563,0.602,-14.465,-8.972,-11.597
0.615,0.581,0.623,-6.531,-6.348,-32.959
0.631,0.509,0.688,12.085,15.381,-30.640
0.615,0.548,0.630,24.841,37.109,-15.564
0.626,0.472,0.519,18.677,37.659,-7.202
0.645,0.554,0.559,-5.615,24.475,5.737
0.669,0.480,0.548,-9.827,16.541,12.451
0.680,0.395,0.539,-13.977,8.118,14.343
0.663,0.567,0.635,-12.085,9.277,13.977
0.677,0.548,0.598,-4.150,21.606,3.418
0.675,0.510,0.548,7.812,19.287,-2.808
0.676,0.494,0.524,12.024,12.634,-4.150
0.674,0.484,0.522,7.751,1.709,5.310
0.656,0.528,0.545,4.089,-4.822,8.728
0.657,0.531,0.530,1.282,-4.272,0.549
0.662,0.520,0.543,4.150,-4.517,-3.174
0.662,0.509,0.537,3.540,1.160,-4.883
0.677,0.493,0.560,1.404,2.258,-2.747
0.674,0.533,0.572,-1.099,2.380,-4.700
0.670,0.490,0.544,0.549,-1.038,-7.202
0.661,0.442,0.531,2.930,-1.831,-1.648
0.666,0.470,0.540,1.160,-1.770,3.296
0.676,0.517,0.563,-0.610,0.122,6.348
0.670,0.498,0.559,-2.075,-2.197,0.793
0.668,0.513,0.553,-1.282,0.549,-1.038
0.682,0.543,0.567,0.549,3.479,-1.282
0.676,0.504,0.554,7.935,9.460,-9.155
0.684,0.475,0.570,7.751,12.268,-14.832

0.702,0.450,0.536,-1.587,-2.014,2.258
0.698,0.472,0.574,-3.723,-2.625,2.258
0.699,0.487,0.585,1.465,2.502,-1.160
0.710,0.431,0.539,7.996,2.869,-2.625
0.703,0.443,0.526,-0.183,-7.874,-2.625
0.704,0.452,0.561,1.221,-8.911,-5.066
0.697,0.464,0.594,-5.188,-19.531,-18.127
0.716,0.458,0.621,-12.329,-19.958,-39.856
0.703,0.439,0.587,-7.751,-12.817,-40.466
0.699,0.388,0.594,-2.563,-11.108,-31.311
0.719,0.425,0.582,-1.953,-12.878,-29.724
0.698,0.434,0.527,-5.859,-18.799,-27.100
0.707,0.396,0.633,-23.132,-18.860,-14.526
0.705,0.360,0.575,-6.287,0.793,4.089
0.718,0.326,0.546,-2.869,4.578,10.986
0.689,0.379,0.531,-5.188,3.113,20.874
0.695,0.470,0.611,-15.198,7.202,20.813
0.720,0.452,0.642,-4.272,13.428,27.954
0.695,0.520,0.559,-3.540,11.963,18.555
0.753,0.606,0.656,-0.977,4.517,1.282
0.703,0.928,0.708,1.404,20.630,-34.119
0.691,0.960,0.660,-14.099,32.410,-85.510
0.679,0.803,0.604,-10.986,55.603,-117.126
0.677,0.531,0.489,2.502,60.974,-136.780
0.874,0.158,0.286,9.460,90.881,-176.270
1.006,-0.169,0.185,10.559,43.701,-173.767
1.100,-0.483,0.583,-7.996,10.742,-132.202
1.149,-1.061,0.818,-85.815,-2.869,-84.778
0.661,-1.557,1.809,-99.182,-9.644,-28.137
0.601,-1.827,0.656,-19.165,104.248,106.079
0.403,-0.604,0.525,-140.991,67.444,239.746
0.011,0.025,0.140,-189.697,46.814,273.254
-0.045,0.934,-0.146,-81.848,98.145,298.889
0.169,1.585,-0.650,-46.082,140.747,240.967
0.241,1.542,-0.674,49.683,98.938,122.620
0.274,1.547,-0.590,59.265,69.092,58.472
0.340,2.383,-1.101,30.884,72.266,-27.466
0.354,2.179,-1.126,0.183,-53.040,-108.093
0.405,1.802,-0.667,53.833,-105.225,-146.362
0.205,1.717,-0.193,63.721,-112.976,-264.587
0.029,1.181,0.212,19.714,-104.065,-416.199
0.028,0.206,0.410,-54.504,-145.264,-429.565
0.029,-0.566,0.932,-218.323,-283.691,-288.391
-0.030,-0.730,1.445,-199.585,-278.381,-152.405
-0.162,-1.237,2.079,-70.251,-90.454,-175.659
0.152,-2.052,2.291,-101.318,108.398,-101.135
0.187,-1.532,1.831,-34.912,319.702,-28.931
0.535,-1.137,1.256,13.184,367.371,141.296
0.602,-0.454,0.805,-61.401,357.300,167.786
0.627,-0.251,0.423,104.919,215.881,210.510
0.265,0.358,0.318,4.700,87.952,231.689
0.083,0.236,-0.169,47.485,71.899,211.365
0.137,1.017,-0.819,42.297,130.188,255.981
0.375,1.898,-0.689,80.017,153.198,216.553
0.511,1.472,-0.652,159.241,96.130,104.736
0.570,1.476,-0.986,151.917,124.268,9.033
0.484,1.557,-1.152,154.114,26.428,-115.356
0.678,1.246,-0.978,110.291,-46.814,-131.470
0.626,1.336,-0.653,69.946,-111.145,-75.928
0.520,1.073,-0.263,29.541,-131.531,-116.211
0.486,1.002,0.005,35.522,-147.095,-164.734
0.409,0.896,0.113,6.287,-134.460,-208.374
0.297,0.428,0.351,-22.705,-153.748,-220.764
0.320,0.114,0.405,-0.366,-180.054,-209.778
0.275,-0.363,0.748,-47.852,-232.544,-167.786
0.439,-0.652,1.527,-95.215,-176.941,-87.402
0.581,-1.118,1.731,-59.814,-52.124,-29.236
0.795,-1.098,1.293,-24.597,-21.057,-56.885
0.619,-0.933,1.356,0.183,72.144,-10.925
0.655,-1.032,1.112,18.372,82.520,79.590
0.609,-1.038,1.106,41.687,41.321,167.664
0.401,-0.880,0.859,36.194,78.857,244.629
0.266,-0.442,0.743,12.451,59.265,285.278
0.015,-0.119,0.714,13.184,88.989,329.102
-0.054,0.790,0.796,-44.556,105.896,342.102
-0.070,1.337,0.188,-121.643,144.165,316.772
-0.078,1.291,-0.270,-71.777,139.465,295.288
-0.020,2.116,-0.497,-97.900,94.116,258.606
-0.034,2.313,-0.989,-28.992,92.041,107.422
-0.065,1.636,-0.807,22.522,-44.617,-26.367
0.040,1.599,-0.349,31.677,-74.341,-61.096
0.038,1.561,-0.273,73.303,-25.879,-144.348
0.026,1.245,-0.027,98.328,-25.818,-234.436
0.175,0.970,0.190,120.544,-63.354,-269.348
0.219,0.558,0.317,84.595,-146.240,-280.945
0.264,-0.028,0.550,111.145,-216.125,-279.907
0.336,-0.548,0.898,14.221,-244.324,-223.083
0.448,-0.661,1.562,-13.123,-229.004,-147.888
0.467,-0.798,1.335,41.443,-72.937,-92.651
0.574,-0.748,0.988,43.457,5.737,-48.218
0.528,-0.617,1.054,11.597,-12.817,6.897
0.492,-0.478,1.187,-1.831,-15.869,66.223
0.532,-0.396,1.032,9.521,53.223,80.811
0.499,-0.203,0.883,5.798,33.569,106.628
0.419,0.273,0.901,-23.804,76.233,90.942
0.559,0.550,0.689,-32.043,124.146,54.932
0.578,0.532,0.418,-18.188,94.116,97.229
0.632,0.923,0.368,-52.307,68.115,84.167
0.694,1.001,0.383,-29.663,61.340,55.908
0.678,0.809,0.322,3.601,27.710,31.433
0.698,0.808,0.409,5.371,-13.184,-6.409
0.703,0.721,0.590,0.793,-17.456,-22.217
0.686,0.435,0.610,27.649,-6.409,-31.128
0.701,0.337,0.644,20.691,-18.005,-30.518
0.712,0.306,0.668,20.569,-14.648,-25.818
0.693,0.296,0.691,6.409,-8.972,-24.231
0.704,0.196,0.685,7.935,-4.883,-17.639
0.699,0.265,0.648,1.953,2.136,-11.353
0.703,0.252,0.614,2.563,5.554,-3.662
0.702,0.228,0.659,-0.732,0.427,-1.099
0.708,0.252,0.664,5.798,-0.244,-2.258
0.709,0.333,0.662,5.920,3.235,-2.014
0.723,0.345,0.639,-2.136,7.935,-2.441
0.725,0.332,0.620,0.061,6.226,-2.136
0.720,0.330,0.611,2.075,3.601,-0.183
0.708,0.337,0.610,-1.648,3.723,2.136
0.725,0.373,0.602,-1.770,1.648,3.479
0.717,0.379,0.582,-4.272,1.587,-1.221
0.711,0.320,0.609,-2.686,-0.366,-2.197
0.715,0.316,0.630,0.366,0.854,1.282
0.725,0.355,0.635,-1.038,-1.038,1.343
0.726,0.354,0.659,-1.282,2.380,-2.136
0.718,0.301,0.633,-2.563,2.808,0.305
0.718,0.335,0.617,-3.174,4.395,3.052
0.715,0.370,0.603,-2.991,3.967,0.671

0.708,0.351,0.596,1.038,0.244,0.427
0.713,0.342,0.625,1.038,0.977,1.465
0.705,0.360,0.607,-0.732,0.854,0.244
0.722,0.347,0.628,-0.977,0.732,0.671
0.722,0.363,0.622,0.183,2.075,0.000
0.724,0.358,0.613,0.610,1.404,-0.305
0.721,0.357,0.622,1.770,3.418,-1.221
0.718,0.354,0.610,1.099,2.197,-0.549
0.718,0.383,0.598,2.441,3.418,0.732
0.720,0.417,0.598,1.343,3.113,-3.235
0.757,0.519,0.686,-3.906,6.592,-9.521
0.774,0.698,0.613,3.845,19.531,-22.583
0.713,0.806,0.367,20.813,3.540,-44.250
0.711,0.773,0.424,8.972,-37.842,-71.167
0.653,0.291,0.601,32.959,-36.194,-85.876
0.758,-0.000,0.546,64.880,-30.151,-75.195
0.807,-0.223,0.611,28.809,-69.336,-76.721
0.813,-0.565,1.041,-48.218,-75.928,-55.847
0.802,-1.181,1.395,-138.245,-38.086,16.235
0.548,-1.113,1.374,-149.170,41.260,119.568
0.356,-0.824,1.450,-137.634,106.812,194.519
0.065,-0.363,1.116,-132.263,165.588,235.413
-0.175,0.378,0.764,-127.014,230.652,246.460
-0.247,1.070,-0.203,-131.104,270.935,264.954
-0.152,1.655,-0.977,-131.409,202.270,258.972
0.055,1.711,-0.630,-0.732,79.529,156.006
-0.091,1.408,-0.814,42.114,39.978,68.787
-0.035,1.739,-1.034,44.128,21.118,-28.198
0.002,1.857,-0.906,56.152,-28.137,-90.210
-0.001,1.579,-0.502,143.799,-45.837,-141.174
-0.081,1.540,-0.276,152.954,-71.655,-212.524
-0.081,1.311,0.073,83.801,-134.399,-308.350
-0.146,0.807,0.374,83.862,-203.796,-342.407
-0.237,0.420,0.622,94.910,-235.046,-342.773
-0.279,-0.059,0.844,114.258,-207.153,-356.506
-0.281,-1.035,0.994,96.863,-152.283,-357.239
-0.010,-1.939,1.379,-50.354,-176.636,-242.187
0.242,-2.098,1.956,-79.956,-146.606,-90.576
0.128,-1.754,1.674,-8.484,-14.038,15.381
0.216,-1.226,1.306,-21.362,52.124,67.444
0.156,-0.961,1.379,-85.632,60.791,115.417
0.143,-0.787,1.152,-44.983,163.452,155.334
0.017,-0.620,0.964,-34.668,198.120,209.595
-0.102,-0.181,0.913,-70.679,197.998,289.246
-0.151,0.477,0.563,-160.095,254.089,337.280
-0.229,0.760,-0.198,-107.483,268.005,364.624
-0.327,1.275,-0.387,-78.186,192.200,355.347
-0.108,1.934,-0.641,-98.328,108.459,272.583
-0.282,1.702,-0.741,-23.437,81.360,165.222
-0.127,2.215,-0.778,-34.790,37.292,28.931
0.016,2.095,-0.712,79.590,-24.597,-124.268
0.148,1.570,-0.496,114.380,-53.650,-164.917
0.126,1.619,-0.301,104.980,-72.449,-194.885
0.073,1.344,-0.026,80.688,-124.939,-250.549
-0.031,1.028,0.145,93.140,-174.011,-305.054
-0.075,0.534,0.419,103.210,-219.177,-321.655
-0.066,-0.094,0.613,95.947,-198.791,-308.594
0.127,-0.589,0.919,7.690,-185.547,-247.192
0.263,-0.920,1.430,-48.096,-126.038,-174.622
0.321,-1.063,1.592,11.841,-30.457,-114.502
0.338,-1.212,1.298,10.925,-55.969,-61.951
0.406,-0.953,1.333,-24.841,-0.977,31.067
0.477,-0.914,1.032,-9.583,62.134,49.561
0.429,-0.744,1.094,-8.362,52.429,89.905
0.303,-0.604,0.936,-17.395,67.017,131.531
0.281,-0.477,0.892,-91.248,90.820,154.724
0.099,-0.050,0.812,-68.542,105.469,222.168
-0.013,0.602,0.603,-71.594,155.334,260.010
0.102,0.862,0.413,-146.301,200.623,264.404
0.073,1.193,0.069,-205.261,234.802,258.179
0.208,1.641,-0.631,-69.031,219.482,254.211
0.092,2.051,-0.752,-8.057,128.906,195.129
0.176,1.498,-0.631,-1.343,16.724,40.833
0.238,1.543,-0.118,5.188,-67.261,-2.747
0.250,1.529,-0.069,41.992,-6.104,-95.215
0.297,1.356,-0.037,48.645,-12.695,-189.148
0.331,1.059,0.074,120.483,-54.504,-236.084
0.422,0.676,0.341,138.062,-105.408,-239.746
0.457,0.100,0.385,71.716,-155.212,-203.796
0.535,-0.196,0.721,39.429,-164.734,-145.752
0.606,-0.244,0.899,31.250,-90.576,-90.271
0.701,-0.089,0.972,21.667,-19.653,-49.377
0.693,0.086,0.794,19.836,8.850,-43.884
0.727,0.039,0.717,21.301,-3.906,-36.926
0.759,0.060,0.767,5.432,-13.733,-4.761
0.751,0.243,0.745,-10.864,5.615,14.832
0.741,0.204,0.647,0.549,5.737,15.747
0.729,0.282,0.642,1.892,0.854,15.442
0.712,0.361,0.639,-0.671,13.428,5.920
0.734,0.412,0.621,-13.794,21.118,-5.554
0.717,0.324,0.557,-8.789,16.846,-14.160
0.748,0.215,0.579,6.104,1.221,-14.404
0.729,0.425,0.623,-5.676,-3.296,5.615
0.736,0.375,0.604,-10.315,2.380,1.282
0.734,0.269,0.598,-3.357,-5.737,-0.854
0.724,0.283,0.619,-3.113,-7.812,7.751
0.737,0.343,0.625,-8.179,0.305,5.981
0.736,0.302,0.630,-1.465,-1.343,-6.470
0.729,0.255,0.621,5.737,2.319,-5.005
0.733,0.312,0.606,2.319,5.920,5.188
0.724,0.340,0.620,-3.540,-0.305,0.244
0.717,0.255,0.613,7.568,-1.038,-2.808
0.728,0.306,0.601,3.235,0.427,5.432
0.743,0.371,0.588,-2.625,0.977,7.019
0.737,0.353,0.627,-0.671,-0.793,-2.930
0.735,0.291,0.620,4.761,1.221,-1.221
0.733,0.279,0.605,2.625,2.197,3.723
0.733,0.337,0.597,-3.601,0.427,3.479
0.721,0.327,0.620,-1.526,3.174,-1.465
0.729,0.281,0.621,0.061,2.380,1.892
0.729,0.292,0.602,3.540,0.610,5.005
0.726,0.339,0.600,-3.418,-0.244,4.028
0.724,0.333,0.618,-0.488,3.418,-0.488
0.735,0.300,0.610,1.953,2.930,0.244
0.734,0.306,0.620,-1.526,0.854,2.869
0.741,0.371,0.623,-1.892,2.136,6.287
0.734,0.345,0.595,-2.869,5.493,1.465
0.732,0.316,0.604,1.770,2.686,-0.183
0.728,0.307,0.596,2.014,2.991,1.953
0.734,0.338,0.587,-0.061,2.197,3.296
0.732,0.333,0.597,0.366,2.197,0.061
0.732,0.304,0.591,0.977,2.563,-0.061
0.744,0.345,0.623,-4.883,1.770,2.930
0.745,0.318,0.604,0.549,6.897,2.502
0.739,0.301,0.600,-1.343,4.517,2.502

0.783,0.297,0.573,-7.568,-5.005,0.610
0.797,0.295,0.569,-2.075,4.700,4.150
0.799,0.274,0.518,-1.526,-3.052,1.343
0.781,0.291,0.566,-1.892,-4.883,1.160
0.798,0.324,0.533,-1.648,0.244,-0.977
0.801,0.297,0.530,2.136,-6.653,-4.456
0.797,0.278,0.556,4.211,-7.690,-4.761
0.812,0.268,0.538,3.540,-13.123,-4.272
0.785,0.328,0.511,2.991,-38.025,-16.785
0.767,0.357,0.636,4.456,-30.640,-21.057
0.769,0.239,0.637,5.554,-17.029,-12.695
0.819,0.393,0.700,-3.723,-15.991,-7.629
0.838,0.698,0.598,-4.395,-22.522,-24.048
0.784,0.773,0.497,-11.719,-49.133,-73.669
0.838,0.625,0.603,-21.851,-94.666,-129.395
0.903,0.307,0.737,34.485,-91.614,-137.451
0.797,0.083,0.589,42.236,-45.349,-86.609
0.688,0.013,0.875,56.458,31.128,-57.068
0.607,-0.626,0.757,59.753,50.720,-72.571
0.527,-1.440,1.268,-72.266,40.039,-22.522
0.354,-1.728,1.201,-95.154,56.030,54.199
0.245,-1.326,0.995,-73.975,72.083,139.465
0.186,-0.552,1.008,-158.569,63.416,174.561
-0.147,0.047,0.758,-207.458,132.263,198.181
-0.260,0.658,0.310,-137.085,218.750,256.165
-0.052,1.061,-0.633,-112.244,275.391,255.371
0.277,1.823,-1.075,-103.882,231.995,254.700
0.394,1.856,-1.226,-56.152,152.405,145.020
0.454,1.927,-1.333,24.109,55.359,29.846
0.526,1.949,-1.152,50.293,-19.958,-75.195
0.391,1.956,-1.074,66.040,-88.074,-176.819
0.169,1.327,-0.504,75.928,-168.091,-188.843
0.119,1.151,-0.201,70.251,-197.327,-198.669
-0.052,0.885,0.013,60.730,-196.289,-228.516
-0.039,0.451,0.167,86.243,-211.670,-272.949
-0.173,0.017,0.222,115.601,-238.953,-295.837
-0.193,-0.709,0.639,25.513,-268.677,-263.611
0.088,-1.290,1.741,-70.190,-220.886,-158.264
0.227,-1.328,1.865,41.382,-78.979,-82.458
0.322,-1.267,1.299,10.864,-36.743,-3.052
0.338,-0.454,1.946,-64.392,36.011,33.813
0.393,-0.588,1.614,-40.283,62.805,35.950
0.413,-0.609,1.379,20.325,101.746,107.361
0.369,-0.667,1.095,-23.010,156.555,143.860
0.193,-0.657,1.068,-69.153,145.264,197.754
-0.004,-0.463,0.738,-57.678,192.139,258.606
-0.120,0.070,0.539,-88.562,224.487,325.623
-0.284,0.870,0.208,-172.485,256.287,338.623
-0.323,0.973,-0.606,-153.687,281.189,302.917
-0.175,1.506,-1.131,-123.657,230.164,278.320
-0.078,1.923,-0.685,-30.518,109.741,180.237
-0.004,1.837,-0.893,39.551,89.478,61.646
-0.036,1.749,-1.331,39.856,44.128,2.808
0.040,1.755,-0.927,52.429,-58.594,-64.270
-0.006,1.444,-0.559,98.267,-121.826,-129.456
-0.048,1.316,-0.446,143.799,-122.925,-184.204
-0.082,1.128,-0.049,82.031,-169.189,-242.126
-0.084,0.971,0.097,98.328,-179.810,-271.362
-0.104,0.480,0.220,139.404,-204.102,-287.842
-0.042,0.234,0.421,125.793,-230.896,-305.359
-0.010,-0.305,0.742,133.850,-243.958,-284.546
0.169,-1.011,1.270,50.171,-223.877,-212.646
0.324,-1.257,1.607,22.156,-166.687,-105.103
0.239,-1.059,1.707,-2.747,-80.383,-12.695
0.268,-1.094,1.557,-15.869,3.967,6.592
0.345,-1.044,1.496,-8.057,34.058,71.960
0.300,-0.937,1.240,-16.113,64.880,122.131
0.168,-0.727,1.208,-73.181,112.366,183.228
0.113,-0.571,1.028,-92.468,145.691,193.542
-0.087,-0.250,0.841,-98.511,138.794,240.723
-0.193,0.341,0.609,-111.755,179.626,289.062
-0.333,0.989,0.245,-175.110,224.609,314.880
-0.112,1.463,-0.480,-255.615,249.023,317.871
-0.187,1.706,-1.061,-208.252,220.459,305.481
-0.057,1.931,-0.435,-96.924,79.407,237.427
-0.162,1.443,-0.597,44.983,58.472,51.575
-0.202,1.726,-0.672,50.232,-1.221,-1.953
-0.139,1.752,-0.734,72.998,-7.935,-58.044
-0.131,1.252,-0.128,96.680,-100.891,-131.104
-0.105,1.280,-0.202,141.785,-95.581,-171.936
-0.193,1.196,-0.035,123.169,-136.536,-235.962
-0.099,0.814,0.344,135.071,-151.245,-290.955
-0.094,0.534,0.427,164.185,-138.672,-322.388
-0.021,0.019,0.620,157.349,-175.781,-328.735
0.165,-0.497,0.857,157.776,-188.049,-291.504
0.287,-0.840,1.403,105.774,-159.729,-225.647
0.279,-1.104,1.392,101.318,-117.371,-156.982
0.268,-1.273,1.453,3.967,-66.956,-55.481
0.330,-1.020,1.411,-43.274,45.532,-22.766
0.384,-1.049,1.030,-14.587,56.580,31.311
0.421,-0.930,1.002,-11.780,27.527,91.187
0.353,-0.648,1.067,-41.138,53.955,135.925
0.333,-0.146,1.057,-71.106,103.638,145.935
0.195,-0.044,0.711,-82.886,120.605,172.119
0.304,0.568,0.640,-63.354,172.485,176.514
0.340,0.907,0.012,-55.176,90.088,142.761
0.490,1.263,0.262,-44.861,21.606,120.117
0.497,0.836,0.385,1.099,10.437,81.848
0.483,0.767,0.387,8.057,8.667,57.129
0.546,0.914,0.584,-17.822,-0.427,34.058
0.527,0.895,0.631,-31.372,32.349,-16.174
0.612,0.728,0.615,-9.094,72.144,-71.960
0.796,0.600,0.579,6.836,68.970,-99.548
0.806,0.413,0.530,11.414,24.902,-59.326
0.750,0.442,0.609,-5.676,-32.349,-20.935
0.709,0.373,0.691,10.620,-19.348,-37.354
0.723,0.399,0.560,19.104,-11.780,-41.138
0.683,0.291,0.630,14.893,-23.865,-34.912
0.597,0.263,0.562,18.555,-7.263,-35.583
0.802,0.237,0.702,25.757,-13.611,-40.649
0.698,0.166,0.642,18.982,-18.372,-23.010
0.702,0.238,0.699,5.676,-15.686,-5.981
0.702,0.246,0.664,2.930,7.263,-3.845
0.726,0.220,0.652,0.061,9.094,11.292
0.747,0.348,0.661,0.488,7.446,7.507
0.723,0.263,0.615,5.310,5.371,2.380
0.727,0.320,0.626,-0.977,5.920,4.822
0.712,0.261,0.613,0.610,9.094,5.493
0.694,0.291,0.623,8.606,9.705,5.615
0.716,0.250,0.608,5.249,0.305,8.118
0.712,0.332,0.615,-3.357,1.404,9.399
0.729,0.305,0.624,2.136,4.333,6.958
0.721,0.295,0.630,7.385,0.061,9.460
0.714,0.325,0.643,10.132,6.531,13.062
0.745,0.344,0.637,9.033,12.085,11.719

0.695,0.334,0.638,3.113,-11.475,-0.610
0.672,0.311,0.622,0.366,-12.268,6.348
0.677,0.323,0.650,1.465,-14.954,7.019
0.652,0.330,0.684,1.282,-13.184,0.977
0.708,0.331,0.671,13.733,-9.338,-8.667
0.685,0.430,0.661,18.433,-5.676,1.770
0.690,0.485,0.649,4.883,-2.747,-0.793
0.694,0.522,0.668,13.245,-2.319,-9.094
0.720,0.670,0.684,12.207,-10.925,-39.246
0.718,0.816,0.669,-5.249,-31.433,-80.383
0.667,0.650,0.560,17.334,-21.240,-93.323
0.672,0.686,0.554,40.588,-18.799,-122.925
0.641,0.403,0.618,47.546,-22.522,-131.653
0.550,0.139,0.491,76.538,-13.916,-139.893
0.565,-0.193,0.471,72.205,-61.035,-126.465
0.430,-0.276,0.674,84.839,-72.510,-119.995
0.414,-0.760,0.701,63.171,-66.284,-109.497
0.453,-1.179,1.448,-54.932,-77.820,-32.654
0.357,-1.357,1.421,-75.623,32.898,42.236
0.341,-1.306,1.230,-78.430,74.646,111.572
0.329,-1.065,1.027,-85.327,93.201,169.861
0.244,-0.828,0.958,-109.070,89.783,211.365
0.091,-0.691,0.956,-142.639,78.735,241.577
-0.120,-0.176,0.718,-152.222,130.005,287.231
-0.325,0.445,0.529,-161.621,157.959,302.734
-0.230,1.385,-0.449,-93.140,299.133,350.830
-0.257,1.650,-0.718,-118.652,239.807,336.121
-0.187,1.829,-0.293,-133.789,70.923,182.495
-0.267,2.184,-0.644,-64.453,102.112,96.069
-0.339,2.154,-1.425,5.737,87.219,14.893
-0.219,1.806,-0.845,96.802,-84.717,-119.385
-0.152,1.539,-0.137,93.506,-148.621,-169.006
-0.148,1.243,-0.064,122.925,-153.687,-225.220
-0.193,0.910,0.224,115.234,-197.449,-287.964
-0.132,0.595,0.469,105.286,-217.590,-314.026
-0.170,0.021,0.747,103.455,-232.178,-332.092
0.037,-0.490,1.339,89.111,-218.567,-343.506
0.092,-1.420,1.517,53.772,-166.077,-331.909
0.238,-1.666,1.832,12.695,-98.206,-178.833
0.218,-1.562,1.307,-24.048,-18.005,-38.025
0.347,-0.999,1.206,-14.893,71.899,9.583
0.351,-0.906,1.130,-13.306,54.565,42.175
0.336,-0.875,0.946,-40.955,55.359,119.507
0.329,-0.533,1.063,-76.111,97.473,184.875
0.271,-0.302,1.009,-70.068,152.283,191.895
0.186,0.119,0.944,-148.193,184.082,199.463
0.145,0.330,0.569,-102.234,233.765,218.994
0.130,0.732,0.166,-159.668,252.319,236.816
0.158,1.019,0.105,-131.958,210.022,216.736
0.168,1.760,-0.153,-90.393,196.777,215.881
-0.039,1.312,-0.913,-125.488,177.612,152.893
0.163,1.532,-1.108,-106.384,77.087,74.951
0.200,1.765,-1.096,42.847,-4.089,-30.396
0.198,1.520,-0.856,98.450,-78.918,-70.007
0.188,1.505,-0.416,94.971,-85.083,-110.779
0.204,1.486,-0.288,123.901,-92.712,-227.356
0.236,0.972,-0.090,103.821,-152.405,-284.973
0.173,0.588,0.205,107.849,-229.431,-263.123
0.144,0.314,0.575,113.708,-248.596,-244.629
0.134,-0.030,0.731,123.474,-221.436,-244.019
0.018,-0.401,0.674,181.335,-172.058,-247.742
-0.066,-1.045,1.223,65.369,-213.745,-238.525
0.042,-1.532,1.879,-15.076,-127.991,-194.092
0.162,-1.735,1.233,-16.418,25.757,-78.674
0.109,-1.609,1.091,-20.813,55.969,33.997
0.267,-1.255,0.797,0.549,1.465,112.610
0.255,-0.913,1.053,-6.836,39.307,182.007
0.180,-0.698,1.026,-51.147,80.872,185.791
0.177,-0.572,1.060,-77.087,110.291,244.324
0.121,-0.111,0.862,-65.308,153.992,300.293
-0.028,0.310,0.687,-97.351,170.349,326.233
-0.003,0.878,0.555,-204.346,205.017,344.604
0.010,1.189,-0.056,-191.956,235.229,357.544
-0.123,1.355,-0.330,-136.108,172.363,304.749
-0.110,1.659,-0.390,-92.102,81.055,151.794
-0.126,1.971,-0.622,-47.668,68.848,52.429
-0.047,1.731,-0.772,18.005,-7.385,-16.968
-0.033,1.637,-0.538,33.142,-73.181,-26.428
-0.005,1.733,-0.319,51.147,-29.602,-102.478
-0.001,1.562,-0.208,145.325,-54.321,-236.450
0.026,1.132,-0.084,178.955,-108.215,-339.844
0.049,0.781,0.376,70.923,-214.355,-365.051
0.141,0.436,0.669,95.764,-235.962,-308.167
-0.021,0.017,0.655,126.709,-198.242,-263.367
-0.021,-0.544,0.659,132.446,-172.546,-264.465
-0.026,-1.002,1.044,61.279,-178.589,-245.972
0.079,-1.298,1.748,21.179,-118.713,-177.307
0.239,-1.499,1.138,11.841,17.334,-94.727
0.299,-0.943,0.865,4.089,35.461,2.563
0.362,-0.862,0.868,-0.610,22.827,17.822
0.367,-0.921,1.024,2.808,0.549,86.731
0.476,0.008,1.351,-9.216,35.339,138.489
0.387,-0.456,0.624,51.819,130.493,114.685
0.408,-0.209,0.944,-73.853,77.026,128.784
0.296,-0.054,0.928,-140.015,73.364,127.808
0.631,1.171,0.492,-64.819,168.091,97.595
0.586,0.496,0.323,-40.771,198.364,124.268
0.743,0.653,0.223,-31.433,114.929,140.381
0.722,0.663,0.258,-27.771,60.547,143.188
0.583,0.929,0.281,-12.451,33.142,116.394
0.806,0.845,0.558,7.996,72.266,79.590
0.757,0.605,0.296,-37.598,67.810,55.725
0.816,0.691,0.283,-16.724,-4.578,14.832
0.755,0.680,0.338,5.310,-41.504,-42.725
0.741,0.530,0.450,32.043,-45.776,-85.815
0.722,0.417,0.511,26.062,-47.058,-87.280
0.740,0.372,0.529,-13.977,-33.508,-74.585
0.755,0.244,0.549,-35.217,-17.456,-56.458
0.765,0.410,0.565,-4.150,10.559,-0.549
0.793,0.337,0.499,9.399,30.273,17.212
0.771,0.422,0.411,1.953,15.076,18.738
0.783,0.388,0.494,0.854,-0.305,4.883
0.771,0.396,0.474,5.798,1.587,8.423
0.794,0.480,0.474,-2.808,0.305,6.714
0.793,0.386,0.524,0.793,7.141,-0.488
0.790,0.399,0.478,11.780,16.113,1.526
0.799,0.428,0.405,13.550,15.259,9.888
0.815,0.456,0.495,-1.221,-5.066,9.766
0.745,0.351,0.461,17.151,-0.244,-2.625
0.776,0.387,0.429,15.076,10.498,8.789
0.764,0.451,0.437,13.794,6.592,16.235
0.748,0.470,0.406,5.859,2.136,-0.977
0.778,0.380,0.440,10.925,-4.639,-0.427
0.750,0.456,0.533,17.822,4.944,-1.343
0.836,0.427,0.527,12.756,3.723,-1.160

0.760,0.407,0.495,1.709,6.470,5.798
0.767,0.389,0.476,1.953,3.601,10.437
0.758,0.406,0.496,1.709,-0.793,8.972
0.776,0.450,0.486,4.700,-0.916,8.911
0.770,0.447,0.500,1.038,2.075,3.784
0.792,0.494,0.489,-1.953,5.920,4.333
0.781,0.486,0.457,-3.357,6.348,-2.502
0.767,0.430,0.453,-0.854,-0.305,-2.441
0.822,0.578,0.548,-1.099,-13.062,-12.756
0.859,0.598,0.440,0.427,-22.888,-42.297
0.761,0.268,0.593,-23.193,-57.861,-44.556
0.860,0.057,0.917,-89.722,-37.842,-12.146
0.797,-0.161,1.110,-80.383,6.104,13.489
0.809,-0.199,0.846,-40.344,45.349,44.739
0.637,-0.014,0.791,-49.438,63.721,78.491
0.559,0.196,0.632,-94.971,108.276,143.372
0.493,0.481,0.391,-139.648,129.395,184.204
0.242,0.693,-0.127,-79.956,152.832,234.741
0.138,1.045,-0.450,-2.441,129.395,268.188
0.119,1.703,-0.621,-0.183,87.830,189.026
0.040,1.679,-0.758,-15.991,24.414,48.218
0.025,1.583,-0.755,20.691,-25.208,-17.822
-0.006,1.539,-0.729,45.959,-67.871,-78.613
-0.050,1.438,-0.516,75.500,-96.863,-155.701
-0.101,1.117,-0.321,91.492,-164.429,-216.553
-0.166,1.000,-0.039,88.684,-199.524,-249.695
-0.209,0.709,0.391,118.530,-223.755,-281.738
-0.167,-0.011,0.557,161.194,-260.803,-304.382
0.144,-0.647,1.637,24.719,-261.841,-296.326
0.387,-1.622,2.336,25.635,-138.794,-181.580
0.594,-1.611,1.862,7.446,-0.916,-16.663
0.431,-0.899,1.651,-51.941,65.369,94.177
0.488,-0.469,1.364,-25.696,94.482,108.948
0.365,-0.502,1.201,-38.025,134.705,132.812
0.274,-0.410,1.047,-79.224,169.067,189.453
0.074,0.020,0.638,-116.272,234.436,258.667
-0.127,0.588,0.243,-136.780,256.775,291.199
-0.150,0.994,-0.352,-118.225,245.300,303.894
-0.227,1.302,-0.576,-84.412,186.096,262.146
-0.287,1.535,-0.892,-33.081,124.268,183.960
-0.267,2.085,-0.859,-21.545,62.378,116.516
-0.212,2.124,-1.058,21.790,22.461,2.869
-0.173,1.452,-0.767,82.092,-55.542,-93.262
-0.146,1.238,-0.444,100.403,-111.267,-131.470
-0.119,1.274,-0.206,88.867,-131.409,-167.236
-0.102,0.994,-0.067,85.876,-154.358,-215.027
-0.033,0.539,0.264,113.586,-200.806,-246.887
0.110,0.245,0.661,122.742,-242.371,-247.131
0.229,0.099,1.018,127.075,-231.995,-242.432
0.351,-0.377,1.614,25.146,-157.837,-221.924
0.493,-0.771,1.944,-44.556,-62.073,-143.005
0.538,-0.761,1.627,-44.128,7.690,-55.542
0.528,-0.703,1.281,-42.053,25.940,-3.418
0.563,-0.641,1.301,-37.964,47.668,48.462
0.501,-0.529,1.192,-53.223,82.886,103.333
0.371,-0.285,1.064,-49.988,110.840,146.973
0.268,-0.044,0.926,-47.180,170.471,184.509
0.114,0.449,0.660,-80.566,188.599,213.867
0.026,0.945,0.191,-72.998,207.520,192.932
0.039,1.076,-0.420,-100.708,192.932,200.928
0.102,1.199,-0.223,-60.608,140.076,208.069
-0.056,1.649,-0.432,-16.418,99.243,167.175
-0.083,2.023,-1.044,18.616,79.956,64.941
0.063,1.514,-0.407,46.143,-46.692,-19.714
0.099,1.366,-0.328,55.115,-44.617,-60.913
0.097,1.248,-0.238,57.617,-62.012,-90.088
0.159,1.229,-0.105,60.791,-74.463,-130.920
0.230,1.024,0.258,76.599,-123.047,-162.598
0.253,0.721,0.519,112.488,-142.883,-177.307
0.294,0.489,0.778,129.883,-151.123,-182.373
0.331,0.159,0.814,124.329,-143.311,-183.350
0.348,-0.191,1.018,47.424,-141.663,-166.992
0.458,-0.425,1.345,-16.174,-98.145,-133.240
0.558,-0.427,1.165,7.751,-17.456,-103.638
0.570,-0.398,1.089,36.926,-1.648,-30.640
0.580,-0.413,1.112,22.522,-20.325,13.916
0.624,-0.199,1.189,-14.709,35.645,44.983
0.560,-0.110,1.039,-7.568,38.208,53.711
0.509,-0.027,0.972,-36.316,48.828,82.520
0.480,-0.011,0.947,-64.026,66.711,104.492
0.435,0.072,0.841,-58.960,99.365,127.014
0.334,0.279,0.669,-53.772,118.347,148.865
0.278,0.487,0.487,-65.063,126.770,178.711
0.244,0.786,0.320,-88.989,125.183,196.289
0.212,1.139,-0.006,-96.252,109.863,174.561
0.295,1.215,0.169,-55.786,78.735,125.122
0.240,1.121,0.110,-30.823,47.546,95.032
0.188,1.282,-0.107,-38.940,46.082,73.059
0.208,1.394,-0.073,-27.832,46.204,46.143
0.227,1.331,-0.032,4.944,41.504,3.174
0.253,1.267,-0.025,13.367,-1.587,-17.883
0.227,1.311,0.016,11.292,-25.208,-57.068
0.249,1.218,0.042,19.043,-30.457,-95.947
0.246,1.079,0.026,20.020,-38.330,-122.986
0.332,0.901,0.142,32.471,-62.378,-147.766
0.347,0.799,0.241,75.195,-97.473,-157.654
0.308,0.694,0.236,99.731,-119.873,-173.584
0.353,0.439,0.351,94.421,-142.761,-180.115
0.367,0.190,0.528,91.187,-142.212,-161.560
0.389,0.021,0.793,78.125,-137.390,-135.132
0.434,-0.261,1.292,34.058,-148.804,-109.375
0.502,-0.344,1.441,9.399,-92.468,-78.552
0.514,-0.358,1.156,18.921,-49.744,-17.517
0.577,-0.275,1.062,4.333,26.733,-5.432
0.582,-0.281,1.027,0.549,19.714,17.700
0.542,-0.070,1.111,-8.545,34.241,34.485
0.509,-0.002,0.912,-18.372,61.646,46.387
0.535,0.174,0.812,-35.889,62.805,62.134
0.512,0.419,0.710,-37.598,82.581,55.725
0.534,0.480,0.483,-32.776,66.528,68.115
0.503,0.452,0.511,-24.475,31.494,91.736
0.565,0.531,0.534,5.615,21.301,87.524
0.517,0.759,0.533,-25.269,21.179,68.054
0.521,0.894,0.441,-35.461,55.481,22.827
0.575,0.700,0.402,-32.959,36.926,20.203
0.582,0.808,0.500,-31.921,26.917,5.005
0.637,0.825,0.555,-2.502,36.987,-26.306
0.636,0.633,0.463,7.446,21.057,-23.621
0.636,0.540,0.563,2.991,-6.714,-8.606
0.621,0.554,0.578,0.732,-4.700,-2.319
0.623,0.563,0.583,2.258,-3.296,-1.587
0.628,0.518,0.560,7.202,-3.845,-9.521
0.620,0.428,0.567,7.263,-6.165,-10.986
0.625,0.455,0.578,21.362,-7.019,-6.287
0.661,0.465,0.667,35.645,13.489,-10.620

0.680,0.515,0.530,-3.418,19.714,-16.724
0.779,0.470,0.532,25.757,4.944,-18.982
0.637,0.433,0.500,55.054,-14.038,-31.189
0.624,0.479,0.561,38.818,25.757,-20.752
0.730,0.459,0.513,23.376,6.287,-15.869
0.686,0.519,0.556,53.833,-5.920,-41.077
0.707,0.444,0.585,73.181,-19.531,-52.551
0.658,0.388,0.546,54.443,-15.381,-45.471
0.686,0.395,0.582,41.077,-4.578,-26.184
0.785,0.473,0.693,44.617,-25.146,-28.625
0.703,0.477,0.673,79.712,-52.917,-59.631
0.672,0.218,0.607,53.223,-59.875,-64.331
0.626,0.015,0.626,-60.120,-48.340,-33.386
0.718,-0.112,0.805,-93.567,-25.940,-8.728
0.920,-0.297,0.984,-53.406,23.987,15.747
0.862,-0.385,0.806,-4.883,50.354,26.917
0.808,-0.444,0.836,-21.484,33.203,61.157
0.713,-0.408,0.753,-4.578,48.706,105.530
0.605,-0.350,0.693,-4.944,49.500,156.006
0.505,-0.109,0.700,-0.793,40.161,203.186
0.271,0.271,0.561,-41.260,34.973,243.591
0.001,0.771,0.248,-134.705,8.362,266.418
0.013,1.073,0.347,-222.778,-52.429,248.840
-0.040,1.362,0.378,-222.290,-13.977,187.195
-0.165,1.271,-0.143,-204.773,45.410,112.000
-0.137,1.229,-0.342,-162.781,22.949,95.703
-0.090,1.469,-0.110,-28.992,-16.541,61.401
-0.229,1.769,-0.506,-11.963,16.296,16.113
-0.260,2.037,-0.599,33.691,-23.926,-63.904
-0.235,1.618,-0.396,84.106,-49.072,-153.076
-0.226,1.396,-0.214,94.666,-72.205,-210.999
-0.201,1.249,-0.128,136.780,-80.505,-266.785
-0.152,0.781,0.161,114.258,-102.783,-306.580
-0.038,0.467,0.247,149.475,-112.427,-310.852
0.093,0.163,0.516,151.489,-108.276,-310.425
0.176,-0.125,0.545,169.250,-101.746,-297.058
0.162,-0.373,0.490,208.313,-95.825,-292.786
0.201,-0.849,0.553,228.760,-104.492,-261.414
0.382,-1.071,0.947,143.738,-79.224,-201.294
0.572,-1.308,1.315,-73.853,-40.710,-115.356
0.520,-1.173,1.149,-54.810,21.973,-38.635
0.567,-1.023,0.704,14.038,1.770,1.587
0.627,-0.870,0.857,33.630,-13.062,5.371
0.651,-1.039,0.971,53.406,-8.728,15.076
0.569,-1.132,1.066,-13.916,-4.272,71.228
0.502,-0.970,1.059,-59.631,14.404,137.329
0.351,-0.735,0.931,-92.163,25.818,183.350
0.354,-0.667,0.730,-55.664,57.312,220.459
0.248,-0.576,0.753,-50.110,44.800,253.296
0.093,0.106,0.619,-41.382,88.928,303.162
0.111,0.682,0.640,-164.062,15.198,291.809
0.023,0.686,0.269,-157.837,62.256,215.637
0.097,0.788,0.052,-136.536,61.523,222.473
0.105,1.099,0.219,-100.647,43.640,202.454
0.036,1.633,0.052,-84.473,20.447,137.024
0.163,1.294,0.047,8.667,-18.494,51.575
0.224,1.082,0.173,-55.298,-115.356,30.701
0.148,1.577,0.240,-126.831,-141.418,38.086
0.145,1.643,0.103,-53.040,-79.163,-5.859
0.161,1.367,0.220,76.355,12.512,-59.937
0.261,1.074,0.355,118.530,59.875,-83.557
0.312,0.943,0.366,87.158,13.855,-109.436
0.279,0.870,0.387,90.637,-23.621,-147.278
0.323,0.569,0.392,90.759,-52.795,-156.860
0.343,0.364,0.518,81.970,-48.340,-129.822
0.384,0.397,0.682,83.740,-22.644,-127.441
0.474,0.271,0.759,73.608,-19.165,-129.395
0.506,0.201,0.829,77.820,-18.799,-133.484
0.558,0.034,0.832,56.091,-13.062,-113.647
0.631,-0.076,0.800,53.894,-30.090,-92.407
0.578,-0.111,0.854,76.050,-34.912,-74.158
0.609,-0.273,0.853,100.830,-20.142,-63.354
0.669,-0.252,0.963,103.821,-9.399,-23.193
0.673,-0.185,0.847,102.051,19.958,-11.536
0.643,-0.143,0.826,49.377,4.211,-14.343
0.602,-0.217,0.755,8.118,-9.949,-10.925
0.578,-0.086,0.733,5.981,-0.854,1.282
0.648,-0.051,0.836,45.410,14.282,-4.333
0.648,-0.114,0.856,41.565,6.470,7.141
0.670,-0.176,0.791,23.376,-4.089,9.155
0.594,-0.143,0.849,9.216,-15.503,12.695
0.609,-0.088,0.824,6.287,6.775,22.888
0.628,-0.038,0.789,0.488,18.555,24.414
0.620,-0.114,0.744,-2.075,8.240,19.714
0.611,-0.106,0.715,-9.094,2.747,21.484
0.617,-0.035,0.744,-9.949,7.568,21.423
0.640,0.039,0.860,-15.930,14.465,13.062
0.640,0.004,0.776,2.930,23.560,8.972
0.684,0.046,0.726,-12.634,3.357,15.747
0.664,0.124,0.857,-17.700,-1.892,13.123
0.655,0.083,0.794,-7.935,9.644,4.517
0.662,0.025,0.745,-8.667,4.089,2.563
0.646,0.031,0.759,-1.465,0.061,-1.526
0.652,0.016,0.765,2.319,1.892,-2.991
0.647,-0.003,0.728,-1.343,-0.793,0.549
0.657,-0.006,0.764,-0.916,-0.488,2.380
0.655,0.013,0.766,-1.343,1.831,3.174
0.661,0.039,0.775,-0.793,5.920,-0.610
0.664,-0.022,0.738,2.625,2.991,-3.418
0.658,0.007,0.785,1.160,-0.244,2.625
0.663,0.034,0.762,7.507,6.531,2.136
0.669,0.016,0.780,0.977,6.592,-0.977
0.676,-0.000,0.732,8.606,12.756,-1.404
0.665,0.008,0.730,4.944,7.019,0.305
0.671,0.028,0.755,2.625,5.188,1.343
0.677,-0.009,0.742,-5.249,4.028,0.610
0.678,-0.003,0.735,-1.038,3.845,0.854
0.683,0.015,0.750,2.014,2.686,-1.404
0.685,-0.005,0.754,0.305,3.235,-2.258
0.675,0.001,0.725,-0.977,2.930,-0.732
0.682,-0.017,0.722,1.465,1.648,-0.793
0.686,-0.003,0.733,2.197,-1.709,0.427
0.690,-0.026,0.749,3.845,-1.099,1.526
0.685,0.016,0.757,0.732,0.549,0.916
0.685,-0.004,0.730,0.671,1.221,2.136
0.682,0.016,0.742,3.601,0.671,0.183
0.677,0.016,0.738,2.075,0.244,-0.671
0.677,0.009,0.731,2.258,0.549,-0.488
0.685,0.000,0.746,3.235,-1.099,-1.099
0.680,-0.031,0.732,0.671,-1.221,4.517
0.687,-0.006,0.747,6.958,-0.610,6.165
0.682,0.005,0.739,4.517,-1.221,4.333
0.695,0.053,0.782,3.418,-2.197,2.319
0.678,-0.032,0.731,2.991,-2.747,-2.197
0.664,-0.006,0.721,-8.423,0.671,3.601

0.690,-0.003,0.726,-0.549,1.953,-0.122
0.696,-0.004,0.718,1.160,1.831,-0.427
0.694,-0.016,0.723,0.854,-2.197,-1.953
0.700,-0.007,0.728,1.709,-0.061,0.061
0.699,-0.011,0.728,2.808,0.488,-1.404
0.703,-0.028,0.730,2.380,-1.709,-1.221
0.701,-0.013,0.734,-0.488,-0.061,1.709
0.704,0.000,0.737,2.014,0.183,0.610
0.691,-0.002,0.721,7.935,-1.343,-4.395
0.684,-0.002,0.716,7.996,-2.258,-6.226
0.690,-0.024,0.733,5.676,-2.869,-5.615
0.693,-0.028,0.726,6.042,-1.831,-6.897
0.710,-0.014,0.746,9.216,-3.052,-9.216
0.684,-0.008,0.717,11.475,-6.042,-14.343
0.695,0.003,0.749,0.061,-7.446,-9.583
0.679,0.074,0.759,15.320,-12.451,-19.043
0.677,0.102,0.725,36.499,-13.794,-37.720
0.683,0.029,0.677,31.677,-26.794,-45.166
0.756,-0.058,0.796,-12.939,-29.846,-23.376
0.881,-0.258,1.068,0.854,-16.968,-4.333
0.941,-0.632,0.990,-11.780,-6.409,-3.235
0.855,-0.966,1.004,-202.515,-0.366,53.955
0.844,-0.763,1.214,-240.906,45.654,125.793
0.765,-0.814,0.914,-145.264,92.407,141.174
0.543,-0.668,0.726,-173.889,73.914,172.607
0.214,-0.287,0.850,-267.029,70.618,252.563
0.007,0.066,0.528,-189.758,147.705,285.095
-0.204,0.519,0.065,-161.743,146.362,313.477
-0.271,1.160,0.053,-166.260,89.478,282.043
-0.284,1.046,-0.176,-74.646,114.075,167.541
-0.305,1.205,-0.659,-18.433,89.294,132.812
-0.425,1.647,-0.579,-40.466,-59.021,111.633
-0.359,2.118,-0.667,-41.260,-104.858,29.419
-0.317,1.913,-0.508,59.814,-122.375,-42.603
-0.248,1.723,-0.282,219.971,-49.133,-111.816
-0.294,1.487,-0.068,205.688,-36.743,-180.969
-0.342,1.388,0.069,155.823,-53.955,-249.817
-0.355,0.988,0.092,158.081,-84.595,-302.246
-0.382,0.673,0.340,227.600,-52.307,-335.266
-0.347,0.301,0.240,276.245,-27.344,-351.379
-0.257,-0.313,0.159,176.636,-34.058,-326.965
0.071,-1.080,0.448,14.282,-82.336,-270.874
0.595,-1.563,1.260,1.831,-72.937,-162.964
0.819,-1.459,1.248,56.213,-29.114,-94.543
0.740,-1.356,0.979,-103.210,-59.875,-12.207
0.710,-0.855,1.478,-171.509,-54.199,45.837
0.620,-0.729,1.411,-58.838,71.716,48.767
0.722,-0.828,1.151,-72.144,72.876,89.355
0.621,-0.801,1.234,-157.654,46.387,155.823
0.428,-0.549,1.198,-123.718,80.261,184.387
0.268,-0.473,0.866,-89.539,138.611,198.059
0.070,-0.201,0.573,-164.124,121.399,241.760
-0.303,0.504,-0.015,-276.672,88.440,310.547
-0.287,1.102,-0.041,-192.932,104.675,279.907
-0.300,1.230,-0.451,-128.174,116.455,203.552
-0.183,1.381,-0.242,-76.050,70.007,148.560
-0.149,1.541,-0.339,-19.836,63.782,118.042
-0.319,1.751,-0.510,-69.580,-8.118,92.407
-0.215,1.688,-0.676,-9.216,-14.221,7.446
-0.106,1.376,-0.512,17.639,-73.914,-35.339
-0.091,1.245,-0.221,22.095,-92.407,-67.505
-0.050,1.200,-0.113,79.590,-74.219,-90.271
-0.005,1.188,0.040,128.601,-77.759,-134.033
0.003,0.992,0.128,216.003,-50.781,-188.721
0.129,0.555,0.367,239.807,-26.917,-207.458
0.301,0.286,0.566,182.739,-46.753,-200.806
0.434,-0.058,0.726,133.240,-75.867,-164.612
0.477,0.059,0.934,122.559,-48.950,-124.207
0.538,0.251,1.055,108.765,-10.132,-124.146
0.542,0.089,0.832,89.355,-24.536,-125.305
0.534,-0.028,0.879,81.482,-62.988,-103.577
0.569,-0.211,1.044,66.040,-55.420,-94.910
0.633,-0.520,1.015,44.556,-33.691,-53.162
0.599,-0.528,1.167,-5.127,-16.296,3.601
0.551,-0.340,1.050,5.432,20.386,24.780
0.550,-0.242,0.851,13.367,30.334,45.959
0.492,-0.039,0.746,11.963,29.419,59.143
0.490,0.120,0.762,20.081,33.081,63.354
0.518,0.239,0.857,19.958,41.931,64.880
0.540,0.407,0.744,10.986,48.035,59.021
0.551,0.382,0.711,-17.517,13.123,43.701
0.559,0.346,0.768,-9.277,-0.427,30.701
0.567,0.309,0.847,19.653,12.939,24.963
0.619,0.368,0.814,25.513,28.748,18.433
0.601,0.347,0.793,-3.967,4.578,11.719
0.605,0.282,0.800,-13.367,-1.282,3.723
0.610,0.273,0.790,-17.029,3.113,4.089
0.603,0.263,0.767,-9.338,6.958,3.235
0.594,0.219,0.765,0.000,6.226,-9.888
0.607,0.200,0.776,5.615,1.404,-16.785
0.612,0.191,0.788,2.747,1.831,-11.047
0.615,0.167,0.766,1.099,3.418,-3.662
0.599,0.183,0.744,-0.977,3.113,3.296
0.644,0.163,0.773,-0.183,-10.254,8.850
0.618,0.205,0.804,3.052,-12.817,0.916
0.608,0.222,0.773,4.395,-11.353,-2.075
0.603,0.190,0.762,3.418,-7.080,2.869
0.535,0.176,0.808,0.977,10.010,0.305
0.650,0.258,0.754,9.766,19.226,-9.521
0.591,0.230,0.749,-15.076,-30.029,1.404
0.559,0.183,0.816,-6.897,11.536,7.568
0.646,0.199,0.694,-9.766,18.921,19.043
0.609,0.242,0.824,-6.836,-12.878,12.146
0.621,0.261,0.784,-0.732,1.038,0.610
0.597,0.211,0.798,-9.155,3.723,0.610
0.611,0.209,0.735,-15.747,-5.676,3.479
0.591,0.231,0.807,-13.062,-12.756,6.287
0.605,0.264,0.782,-3.601,1.160,5.798
0.593,0.244,0.768,-4.211,4.211,3.357
0.579,0.260,0.775,-3.418,0.000,6.042
0.626,0.258,0.743,6.958,5.615,3.235
0.575,0.236,0.783,-1.953,2.869,-2.136
0.606,0.274,0.765,2.075,7.141,3.357
0.589,0.266,0.743,3.357,6.470,5.615
0.605,0.236,0.842,-6.287,-2.197,5.859
0.608,0.227,0.797,17.090,7.141,7.812
0.601,0.277,0.792,18.494,18.982,-0.061
0.614,0.245,0.712,20.569,18.738,-0.671
0.607,0.235,0.730,1.953,4.700,4.211
0.625,0.239,0.724,-12.695,1.038,8.545
0.639,0.256,0.774,-9.705,-3.052,0.000
0.603,0.255,0.745,-1.709,3.845,1.587
0.615,0.280,0.788,5.737,3.540,0.549
0.613,0.251,0.733,6.104,5.249,2.686
0.628,0.249,0.757,9.216,-1.343,4.578

0.661,0.168,0.756,-4.028,0.977,5.005
0.667,0.197,0.773,5.066,6.775,2.258
0.679,0.238,0.804,0.793,3.052,3.357
0.667,0.221,0.754,-20.142,7.629,9.766
0.671,0.183,0.701,-13.672,9.216,8.789
0.676,0.174,0.709,-5.737,-9.277,0.610
0.624,0.188,0.734,-12.878,-22.095,2.930
0.637,0.198,0.688,-14.404,-15.869,12.146
0.631,0.229,0.720,-3.418,-16.968,15.930
0.698,0.167,0.830,15.259,-7.385,5.737
0.710,0.122,0.863,-22.705,-2.686,4.211
0.853,-0.148,1.051,-108.032,7.263,32.654
0.888,-0.216,1.060,-168.823,27.405,80.933
0.840,-0.215,0.966,-184.570,55.908,104.980
0.772,-0.163,0.974,-246.033,62.988,152.771
0.609,-0.003,0.827,-210.571,109.253,189.392
0.375,0.067,0.632,-156.555,107.483,218.506
0.022,0.342,0.159,-179.443,101.746,258.850
-0.357,0.823,0.049,-191.162,109.436,282.104
-0.550,1.537,-0.698,-90.698,145.752,225.586
-0.514,1.980,-0.610,24.170,89.966,81.848
-0.533,1.695,-0.668,101.746,62.683,-33.936
-0.601,1.563,-0.907,105.347,-39.917,-98.694
-0.650,1.720,-0.791,117.371,-108.582,-158.264
-0.666,1.509,-0.480,188.477,-87.585,-233.093
-0.598,1.133,-0.065,204.956,-95.520,-281.738
-0.657,0.902,0.220,255.432,-103.210,-364.685
-0.671,0.256,0.415,257.080,-36.804,-423.035
0.015,-0.542,0.998,128.235,11.108,-402.771
0.235,-1.086,0.825,-93.933,-87.952,-317.078
1.163,-1.883,1.482,-109.924,-98.938,-211.121
1.126,-1.578,1.750,-96.375,-120.178,-44.373
0.853,-0.838,1.348,-113.708,29.419,26.733
1.047,-1.072,1.318,-118.103,52.979,20.630
0.840,-0.897,1.145,-22.522,38.086,83.130
0.767,-0.613,1.411,-11.108,36.499,135.742
0.389,-0.298,1.315,-119.019,79.285,216.492
0.209,-0.147,0.680,-136.169,160.645,273.926
-0.152,0.169,-0.122,-165.894,211.548,273.682
-0.191,-0.130,-0.585,-448.486,81.665,244.568
-0.865,2.265,-0.157,32.837,93.506,371.338
-0.300,0.986,-0.468,-75.562,193.237,162.842
-0.507,1.222,-0.612,14.221,156.128,141.785
-0.542,1.926,-0.737,77.759,105.103,92.163
-0.440,1.672,-0.646,99.060,54.504,-29.846
-0.305,1.437,-0.575,104.004,6.653,-77.271
-0.195,1.264,-0.307,94.727,-43.152,-99.426
-0.075,1.244,-0.012,90.515,-59.082,-110.229
-0.023,1.241,0.108,106.934,-69.824,-160.034
0.054,1.157,0.339,89.661,-70.679,-222.656
0.131,0.777,0.439,90.820,-78.552,-229.858
0.258,0.533,0.541,71.899,-83.252,-219.360
0.387,0.253,0.513,80.750,-97.046,-214.966
0.509,0.001,0.660,79.285,-113.159,-183.838
0.658,-0.159,0.925,73.547,-103.821,-136.841
0.711,-0.102,1.082,78.613,-56.274,-93.079
0.675,-0.056,1.078,72.571,-23.621,-71.472
0.664,-0.045,0.950,59.082,-8.057,-60.608
0.677,-0.253,0.860,8.667,-8.850,-39.551
0.679,-0.274,0.917,-36.743,-10.925,-4.272
0.697,-0.180,0.973,7.263,10.986,21.973
0.643,-0.188,0.714,61.279,17.456,40.588
0.479,-0.014,0.641,47.363,6.775,39.734
0.514,0.148,0.690,15.686,34.912,13.733
0.818,0.260,0.795,-41.382,10.559,24.353
0.577,0.176,0.783,-26.611,-13.550,54.382
0.487,0.377,0.828,-42.236,-3.723,64.575
0.505,0.584,0.608,0.061,-8.972,72.998
0.664,0.662,0.679,-24.170,-20.203,48.462
0.551,0.593,0.821,-28.870,-18.433,36.743
0.537,0.580,0.770,-32.593,6.470,23.682
0.544,0.523,0.616,-13.000,17.639,8.911
0.560,0.558,0.722,7.019,-4.089,12.634
0.549,0.484,0.751,7.446,-1.526,-2.563
0.538,0.398,0.743,0.366,4.395,-6.897
0.581,0.429,0.683,-7.202,11.047,-9.216
0.559,0.619,0.718,-5.920,10.620,-12.085
0.599,0.639,0.651,16.052,11.780,-36.499
0.566,0.543,0.706,14.648,-1.831,-37.476
0.675,0.884,0.868,-14.282,-0.183,-72.021
0.551,0.708,0.539,-4.395,22.583,-111.450
0.614,0.577,0.641,11.719,-9.705,-126.831
0.570,0.527,0.653,49.927,-29.114,-149.109
0.494,0.205,0.527,54.382,-51.086,-161.743
0.467,0.188,0.550,43.945,-50.720,-157.837
0.435,-0.068,0.728,44.922,-52.979,-138.977
0.445,-0.177,0.718,82.581,-61.401,-123.413
0.401,-0.317,0.711,115.173,-47.729,-137.817
0.313,-0.798,0.623,114.197,-86.670,-138.428
0.321,-1.216,1.239,33.264,-69.397,-89.722
0.356,-1.255,1.016,7.385,-5.493,-13.184
0.346,-1.049,0.827,21.118,-2.380,59.326
0.329,-0.958,0.673,53.467,-7.019,102.600
0.321,-0.866,0.607,46.387,-31.433,121.887
0.237,-1.016,0.585,-15.320,-72.449,125.122
0.238,-0.277,0.728,-197.327,-142.822,161.133
-0.091,-0.091,0.988,-303.650,-125.671,108.215
-0.148,0.293,1.023,-327.332,-38.452,77.637
-0.008,1.025,0.799,-166.626,62.317,136.475
0.378,0.989,0.313,-246.399,79.285,203.979
0.270,1.378,0.296,-189.575,136.841,181.458
0.318,0.929,0.470,-82.947,157.471,170.776
0.235,1.436,0.308,58.533,101.379,184.448
0.235,1.693,0.164,115.479,78.003,115.540
0.147,1.559,0.183,92.651,18.005,-5.859
0.177,1.198,0.462,80.566,-68.115,-143.005
0.178,1.059,0.900,119.995,-27.588,-159.607
0.176,0.887,0.719,116.028,14.954,-179.749
0.186,0.479,0.717,101.440,15.747,-183.228
0.227,0.377,0.775,50.659,-3.174,-177.795
0.215,0.193,0.791,76.965,1.099,-173.462
0.197,-0.038,0.712,94.971,12.451,-176.331
0.254,-0.414,0.660,73.425,-4.333,-167.419
0.268,-0.787,0.658,23.865,-56.946,-141.052
0.269,-0.673,0.998,1.099,-112.671,-63.110
0.291,-0.747,1.043,-0.244,-117.187,-31.006
0.390,-0.468,1.115,-9.521,-51.941,12.329
0.296,-0.365,0.983,-9.338,-14.221,-49.377
0.267,-0.323,0.991,-36.804,-41.626,-80.566
0.273,-0.282,1.079,-28.442,-86.670,-58.716
0.224,-0.199,1.155,35.217,11.414,-12.939
0.276,-0.125,0.842,10.254,92.346,12.146
0.301,0.063,0.856,-70.557,33.264,15.869
0.332,0.028,0.970,-65.186,-37.170,-24.048
0.350,0.108,1.109,39.612,13.611,-32.227

0.281,-0.174,0.966,7.141,-5.371,22.278
0.304,-0.164,0.962,13.184,-2.808,9.399
0.309,-0.082,0.964,29.663,-22.461,-22.949
0.259,-0.167,0.971,25.940,-43.518,-21.484
0.262,-0.121,1.067,-14.954,-14.221,-34.241
0.134,-0.169,1.208,-63.171,70.068,-70.129
0.296,-0.318,0.690,32.043,8.240,-40.222
0.270,-0.039,0.895,-34.851,-101.196,0.916
0.215,-0.111,1.040,-6.775,-62.012,12.024
0.155,-0.034,0.947,-3.052,-53.528,-13.306
0.199,0.050,1.170,-3.235,-54.016,-50.537
0.231,0.155,1.118,14.832,-46.448,-61.890
0.155,0.072,1.044,44.983,-9.033,-29.114
0.228,0.267,1.021,54.504,-9.644,-57.373
0.115,0.055,0.990,63.477,6.653,-67.993
-0.105,-0.313,0.813,79.895,49.194,-96.436
-0.055,-0.852,0.790,64.026,-3.784,-98.633
-0.139,-0.977,0.990,4.944,-16.052,-61.218
-0.263,-1.205,1.053,-29.785,22.034,-28.809
-0.344,-1.376,0.867,-66.406,72.144,23.193
-0.319,-1.252,0.736,-59.387,45.593,104.675
-0.358,-1.114,0.757,-60.913,28.687,177.795
-0.414,-0.809,0.690,-98.022,36.011,228.760
-0.479,-0.458,0.635,-139.282,56.335,276.367
-0.461,0.362,0.836,-178.589,50.537,310.608
-0.125,1.074,0.635,-152.588,95.154,289.001
-0.013,0.932,0.494,-57.617,78.308,267.273
-0.099,1.334,0.740,-63.354,14.587,210.388
0.191,1.425,0.688,-29.297,39.307,148.071
0.138,1.431,0.633,-17.517,13.367,79.468
0.294,1.849,0.690,-22.278,15.747,1.648
0.394,2.101,0.648,21.362,-8.667,-95.337
0.130,1.453,0.648,83.618,-4.395,-157.715
0.032,1.272,0.669,99.670,-39.795,-218.079
-0.145,0.961,0.724,105.713,-47.668,-256.104
-0.242,0.686,0.735,95.154,-46.021,-288.025
-0.284,0.581,0.778,108.521,-22.278,-327.454
-0.498,-0.036,0.622,95.154,-32.532,-325.378
-0.515,-0.604,0.907,54.260,-62.744,-292.725
-0.549,-1.255,1.078,56.335,-59.326,-211.365
-0.563,-1.411,1.157,46.631,-93.323,-125.305
-0.308,-1.313,1.087,18.066,20.325,-59.387
-0.330,-1.395,0.942,-8.911,13.855,-64.697
-0.259,-1.373,0.780,-28.564,18.188,10.010
-0.118,-1.275,0.820,-38.879,23.804,69.946
-0.194,-1.258,0.871,-64.636,29.785,99.487
-0.204,-0.916,0.895,-93.933,44.006,160.339
-0.223,-0.542,0.847,-94.177,69.519,217.834
-0.256,-0.138,0.853,-101.440,64.087,253.235
-0.131,0.302,0.880,-109.009,56.396,259.399
-0.054,0.375,0.547,-126.648,54.016,256.226
-0.185,0.525,0.418,-88.257,32.898,265.015
-0.152,0.924,0.936,-90.088,17.029,223.938
0.091,1.459,0.820,-20.935,102.539,188.110
0.041,1.203,0.454,4.150,71.167,129.333
0.104,1.274,0.707,-55.847,8.118,61.462
0.227,1.453,0.574,-40.161,45.288,14.160
0.208,1.283,0.604,-14.832,8.484,-29.602
0.240,1.222,0.666,25.635,-7.080,-55.054
0.225,1.244,0.735,48.035,-21.240,-109.070
0.141,1.147,0.807,50.415,-22.949,-155.579
0.085,0.937,0.775,63.538,-24.536,-184.204
0.052,0.645,0.733,64.941,-33.569,-192.688
0.075,0.517,0.789,74.768,-28.992,-207.703
0.036,0.026,0.776,68.848,-42.664,-194.702
0.059,-0.151,0.877,60.120,-26.794,-162.048
0.031,-0.402,0.864,18.860,-9.094,-110.046
0.081,-0.739,1.026,-19.958,-25.879,-89.844
0.210,-0.878,1.105,-27.710,-63.660,-63.293
0.266,-0.685,1.169,-53.467,-2.747,-7.202
0.318,-0.526,0.987,-41.809,10.925,-28.992
0.320,-0.605,0.942,-53.345,-1.587,-9.277
0.289,-0.537,1.110,-98.572,0.183,16.785
0.236,-0.386,1.067,-142.151,28.625,49.316
0.226,-0.204,1.096,-167.358,54.138,80.261
0.235,-0.058,1.013,-184.082,68.542,102.661
0.175,0.295,0.848,-254.578,95.642,114.380
0.178,0.516,0.643,-265.564,138.550,127.869
0.285,0.806,0.519,-273.499,137.634,109.314
0.185,0.756,0.332,-243.469,137.573,75.867
0.232,0.772,0.129,-194.519,124.817,104.248
0.171,0.964,-0.010,-190.124,126.282,114.014
0.168,1.272,-0.200,-119.446,117.065,88.989
0.191,1.096,-0.288,-57.495,68.115,80.750
0.023,0.964,-0.365,-65.369,60.425,56.702
0.140,1.280,-0.525,-45.837,67.993,61.951
0.042,1.306,-0.496,37.354,-2.625,16.785
0.076,1.125,-0.518,74.341,-30.884,-17.151
0.109,1.089,-0.322,58.655,-59.753,-33.630
0.121,1.149,0.061,68.970,-63.110,-36.438
0.160,1.020,-0.184,184.326,-12.939,-74.829
0.142,0.881,0.008,184.875,-113.708,-90.088
0.201,0.876,0.248,212.158,-112.244,-98.022
0.219,0.786,0.373,127.869,-125.916,-120.911
0.255,0.665,0.679,164.062,-110.535,-110.901
0.268,0.526,0.660,204.285,-86.609,-101.257
0.239,0.394,0.674,194.092,-97.229,-86.182
0.223,0.314,0.852,151.306,-99.487,-75.195
0.210,0.122,1.030,116.272,-93.628,-47.791
0.219,-0.031,1.135,110.840,-79.163,-17.944
0.214,-0.039,1.065,98.267,-57.434,-0.977
0.189,0.059,1.102,62.561,-41.443,-3.296
0.178,0.006,1.181,56.702,-12.207,-3.723
0.204,0.072,1.024,47.729,33.447,-5.432
0.239,0.011,0.956,36.377,34.607,5.005
0.229,0.095,0.984,17.090,1.526,30.334
0.218,0.171,0.956,4.639,3.784,31.677
0.228,0.227,0.974,-6.042,6.897,30.762
0.237,0.287,0.943,-6.775,14.404,25.269
0.241,0.335,0.903,1.526,8.911,21.851
0.248,0.356,0.956,5.249,-3.784,18.066
0.231,0.295,0.957,4.883,-0.305,10.437
0.224,0.256,0.948,1.587,1.648,7.751
0.241,0.301,0.944,1.831,2.502,4.639
0.234,0.261,0.915,2.747,1.404,-1.770
0.235,0.224,0.949,0.061,-1.648,-1.587
0.226,0.203,0.936,2.075,-1.038,1.770
0.234,0.204,0.963,6.287,-4.456,1.587
0.223,0.188,0.956,5.859,-2.869,2.441
0.234,0.210,0.976,2.930,-2.747,-1.221
0.222,0.153,0.983,-1.404,1.099,2.319
0.244,0.193,0.961,1.648,2.136,5.249
0.223,0.220,0.950,-2.197,1.648,3.601
0.241,0.268,0.970,0.732,0.854,-1.160
0.229,0.200,0.954,0.061,0.305,-0.488

0.227,0.222,0.959,-0.366,1.526,-1.282
0.233,0.216,0.948,0.000,1.221,-0.977
0.226,0.206,0.944,0.244,0.488,-0.793
0.223,0.202,0.951,-0.183,-0.183,-0.732
0.229,0.214,0.956,0.061,0.000,-0.427
0.229,0.194,0.953,0.183,-0.671,-0.061
0.228,0.212,0.978,-0.366,-0.610,0.793
0.233,0.251,0.978,-0.854,1.099,0.854
0.227,0.215,0.958,0.488,1.831,-1.587
0.228,0.207,0.955,0.671,0.854,-1.404
0.227,0.219,0.943,0.244,2.014,-1.587
0.234,0.247,0.957,0.000,0.244,-2.136
0.237,0.231,0.953,1.343,0.977,-5.432
0.240,0.221,0.965,-0.916,1.160,-7.568
0.255,0.247,1.008,-2.319,4.517,-13.733
0.245,0.237,1.086,15.015,16.235,-24.719
0.238,0.136,1.021,34.119,13.672,-24.231
0.234,-0.081,1.091,45.410,6.714,-18.005
0.220,-0.381,1.124,-2.686,17.761,-2.258
0.162,-0.531,1.157,-48.035,45.837,19.165
0.130,-0.494,1.076,-34.973,58.350,66.895
0.138,-0.327,0.975,-32.776,43.335,119.812
0.143,-0.030,0.823,-57.251,28.870,159.485
0.064,0.574,0.705,-106.506,36.377,177.246
0.149,1.421,0.588,-37.292,114.075,170.959
0.234,1.847,0.397,79.895,148.254,146.240
0.197,2.227,0.156,6.409,-19.531,9.949
0.174,1.717,0.495,48.218,-81.543,-61.218
0.074,1.065,0.740,81.909,-82.825,-155.579
-0.119,0.455,0.716,102.722,-54.565,-195.190
-0.181,-0.108,0.877,113.037,-67.444,-219.666
-0.111,-0.536,1.141,112.976,-83.923,-238.892
-0.108,-1.109,1.116,75.989,-27.100,-239.990
-0.039,-1.649,1.064,48.401,-15.259,-163.269
0.203,-1.770,0.878,54.626,44.922,-56.641
0.094,-1.444,0.813,32.532,11.475,74.524
-0.035,-1.036,1.046,7.629,-27.588,150.452
-0.183,-0.827,1.082,-9.521,11.230,184.265
-0.336,-0.578,0.957,-58.044,35.950,241.577
-0.307,0.501,0.800,-128.967,48.889,312.561
-0.057,1.871,0.725,-308.228,94.299,272.888
0.154,2.651,0.179,-40.405,232.605,259.888
-0.032,2.567,0.144,108.521,154.663,149.841
0.042,1.868,0.500,15.259,-10.071,-124.573
0.037,0.937,0.677,9.277,-55.115,-245.666
0.058,0.856,0.796,21.790,-86.121,-235.046
-0.074,0.418,0.893,116.333,-128.540,-238.525
-0.187,-0.461,0.718,88.013,-146.423,-271.912
-0.035,-1.613,1.367,-15.442,-50.720,-249.207
0.104,-1.696,1.113,-10.864,4.150,-123.047
0.207,-1.837,1.026,8.911,1.648,0.000
0.145,-1.593,0.866,-8.850,-11.047,120.178
0.082,-1.312,0.902,3.418,-14.893,189.697
-0.150,-0.914,0.968,-30.212,-2.625,258.606
-0.391,0.284,1.172,-140.869,7.568,301.453
-0.232,2.123,0.931,-371.460,128.662,258.423
-0.102,2.899,0.088,72.937,245.056,286.499
-0.193,2.307,0.344,142.334,86.304,52.917
-0.057,1.424,0.647,69.824,-32.776,-223.389
0.015,0.632,0.857,39.795,-32.410,-273.926
-0.018,0.205,0.808,23.499,-33.630,-189.270
0.092,-0.001,1.099,23.315,-47.485,-172.791
0.260,-0.700,1.108,20.630,17.700,-232.849
0.488,-1.292,0.671,21.729,7.324,-174.316
0.520,-1.090,0.982,5.554,-101.929,-66.284
0.514,-1.322,0.846,21.973,-9.094,-8.606
0.409,-1.163,0.814,-6.958,-40.649,80.322
0.286,-1.002,1.020,-5.920,-43.213,147.278
0.172,-0.771,0.917,-10.010,-16.235,199.036
-0.119,0.062,1.167,-80.383,-48.279,250.916
-0.212,1.102,0.902,-110.107,-9.094,232.666
-0.213,1.544,0.605,-101.379,21.851,180.908
-0.152,2.047,0.865,-74.158,-9.155,98.450
-0.156,1.609,0.773,41.931,13.367,-16.663
-0.037,1.125,0.653,107.788,45.288,-104.126
-0.107,1.104,0.903,19.043,-4.211,-151.550
-0.100,0.537,0.933,9.155,17.822,-201.294
0.036,0.077,0.872,27.161,14.893,-228.577
0.106,-0.191,0.870,26.001,-10.498,-230.041
0.149,-0.384,0.966,7.751,22.949,-222.046
0.321,-1.156,0.821,-18.250,1.099,-174.194
0.434,-1.234,1.048,-13.123,-18.066,-62.500
0.435,-1.139,1.005,24.475,3.296,8.240
0.411,-1.193,0.804,9.277,-24.780,92.712
0.298,-1.000,0.924,7.690,-26.672,159.607
0.177,-0.708,0.942,-23.499,-31.067,205.139
-0.039,-0.072,1.028,-59.509,-10.742,245.544
-0.099,0.351,0.659,-56.030,18.616,247.925
-0.206,0.350,0.591,-60.791,7.263,260.925
-0.386,1.586,1.307,-96.924,2.197,257.202
-0.262,1.822,0.572,22.827,45.410,182.068
-0.253,1.670,0.956,-20.935,33.813,103.577
-0.206,1.971,0.835,-1.282,59.021,-36.194
-0.205,1.091,0.906,45.837,1.709,-189.575
-0.056,0.394,0.980,87.891,-9.399,-218.506
-0.006,0.390,0.958,71.533,-31.128,-201.355
-0.130,0.392,1.009,18.311,0.061,-237.366
0.055,-0.613,0.648,11.047,69.580,-308.167
0.305,-0.817,0.772,-24.475,6.958,-226.318
0.352,-0.970,0.799,5.737,-15.747,-160.400
0.398,-1.194,0.928,8.667,-69.336,-68.726
0.425,-1.164,1.203,-22.278,-27.222,-4.028
0.363,-1.016,1.070,-16.907,-16.724,62.561
0.348,-0.862,1.135,-9.705,12.939,134.766
0.283,-0.795,0.945,-2.563,17.273,174.744
0.010,-0.446,0.932,-35.583,16.968,247.864
-0.181,0.395,1.071,-57.556,52.551,279.724
-0.120,1.216,0.682,-76.294,46.143,252.075
-0.027,1.239,0.516,-56.396,-18.433,173.218
-0.026,1.195,0.871,-33.691,-32.776,97.900
-0.052,1.591,0.914,23.682,21.973,6.409
-0.073,1.639,0.706,42.969,30.762,-100.708
-0.063,1.045,0.755,38.574,23.499,-163.635
-0.001,0.823,0.886,55.176,30.396,-210.937
0.023,0.194,0.757,75.195,26.245,-247.009
0.203,-0.370,0.604,55.664,7.629,-231.506
0.322,-0.514,0.755,27.039,-21.606,-169.434
0.337,-0.423,0.862,45.166,-10.986,-112.671
0.352,-0.493,0.822,122.864,-14.404,-115.356
0.439,-1.094,0.969,86.731,-23.804,-97.717
0.468,-1.284,1.196,-91.614,-25.330,-34.363
0.452,-1.004,0.951,-68.726,-6.653,50.537
0.415,-0.875,0.791,-28.992,-10.193,128.296
0.260,-0.641,0.783,-20.935,-17.273,188.171
-0.018,-0.071,1.072,-55.176,-13.000,231.262

0.343,0.134,0.966,1.831,-4.272,2.502
0.351,0.106,0.918,1.648,1.648,0.793
0.346,0.074,0.946,-6.897,-1.648,-2.136
0.347,0.078,0.950,0.549,0.061,2.441
0.343,0.072,0.929,4.150,1.404,6.042
0.346,0.111,0.940,1.282,-0.854,6.531
0.342,0.126,0.956,-1.709,-0.916,3.967
0.341,0.120,0.946,-1.282,0.549,4.089
0.343,0.110,0.946,0.305,0.732,5.127
0.341,0.096,0.944,-2.747,0.427,6.470
0.335,0.255,0.976,-11.353,2.747,4.944
0.315,0.540,0.947,-18.982,14.709,-25.146
0.299,0.632,0.940,-20.996,15.686,-79.590
0.310,0.380,0.894,15.503,7.568,-103.210
0.350,-0.017,0.828,52.490,-31.128,-70.496
0.363,-0.387,0.963,32.654,-57.617,-55.786
0.381,-0.537,1.249,-4.700,-16.235,-53.345
0.385,-1.002,1.126,-48.157,6.531,-23.193
0.351,-1.132,1.211,-79.773,12.451,58.899
0.238,-1.113,1.026,-63.538,17.700,150.330
-0.069,-0.904,1.014,-95.459,22.461,238.037
-0.351,0.068,1.032,-152.222,85.266,312.439
-0.224,0.914,0.466,-157.837,113.770,332.764
-0.319,0.998,0.141,-126.038,46.448,302.368
-0.502,1.234,0.405,-96.069,-0.366,242.798
-0.549,2.505,0.401,-50.354,36.560,164.917
-0.484,1.981,0.019,89.905,74.402,11.230
-0.312,1.472,0.344,67.383,10.681,-85.327
-0.324,1.629,0.573,16.174,7.935,-132.385
-0.351,1.276,0.622,39.429,17.639,-216.736
-0.316,0.856,0.588,89.661,-12.634,-282.532
-0.325,0.560,0.601,100.647,-25.269,-297.668
-0.193,0.224,0.721,94.055,-4.578,-302.063
-0.097,-0.160,0.758,119.385,6.775,-307.922
0.070,-0.759,0.543,127.380,-12.451,-311.890
0.271,-1.613,0.866,23.254,-56.030,-284.180
0.446,-2.090,1.465,-46.265,-34.851,-136.292
0.475,-1.772,1.081,-25.085,-7.507,-8.606
0.443,-1.380,0.989,-29.236,-9.949,91.980
0.334,-1.096,1.055,-32.898,4.944,155.701
0.236,-0.933,0.953,-84.351,15.991,208.679
0.045,-0.772,0.847,-151.062,15.381,271.729
-0.225,-0.255,0.802,-164.673,28.320,326.599
-0.389,0.699,0.523,-136.597,67.139,380.249
-0.368,0.893,0.108,-40.833,77.393,330.627
-0.684,1.175,0.583,-85.144,9.644,283.325
-0.711,2.310,0.775,-1.770,78.125,251.465
-0.542,2.752,0.442,101.868,115.906,123.535
-0.391,1.809,0.472,70.984,24.719,-95.764
-0.274,1.212,0.563,56.519,17.944,-167.175
-0.266,1.223,0.737,8.728,22.888,-203.674
-0.322,1.070,0.755,12.451,31.677,-252.869
-0.285,0.507,0.685,36.377,25.879,-304.260
-0.194,0.165,0.744,31.616,17.517,-318.298
0.001,-0.451,0.547,51.392,-6.897,-315.308
0.378,-0.981,0.874,2.319,-61.646,-276.123
0.470,-1.406,1.114,-14.221,-43.579,-231.567
0.533,-1.399,1.106,-20.630,-32.593,-115.906
0.532,-1.319,1.062,-37.292,-24.353,-36.499
0.538,-1.217,0.971,-45.227,-8.545,35.889
0.529,-1.035,0.832,-56.396,-10.071,98.816
0.423,-0.942,0.751,-86.853,-22.705,160.828
0.252,-0.719,0.805,-102.539,-3.906,237.732
-0.020,-0.328,0.708,-98.999,26.428,313.293
-0.286,0.144,0.649,-85.632,24.353,361.755
-0.337,0.866,0.762,-81.116,-4.639,352.844
-0.296,1.384,0.758,-61.462,-26.672,278.931
-0.328,1.016,0.660,-40.222,-19.104,186.096
-0.389,0.848,0.713,3.235,4.883,159.485
-0.363,1.686,0.782,34.729,13.245,136.658
-0.351,1.616,0.441,49.744,5.981,45.654
-0.327,1.060,0.556,29.663,-10.193,-20.874
-0.310,1.201,0.710,4.639,15.137,-54.382
-0.331,1.488,0.810,17.334,24.902,-109.619
-0.344,1.250,0.694,82.397,32.349,-190.552
-0.314,0.769,0.532,137.878,41.016,-243.225
-0.177,0.525,0.547,99.365,28.564,-272.888
-0.079,0.363,0.492,61.523,18.372,-276.733
-0.086,0.009,0.755,63.110,-22.217,-313.965
0.046,-0.516,0.851,116.455,-43.823,-295.959
0.147,-0.769,1.231,53.406,-72.876,-219.116
0.265,-1.105,1.264,10.681,-7.507,-152.100
0.325,-1.004,1.186,-22.522,3.601,-73.303
0.395,-1.029,0.978,-5.310,13.367,-9.216
0.365,-0.980,0.918,-7.996,-2.563,61.951
0.288,-0.707,0.953,-40.222,-9.216,126.099
0.224,-0.322,0.956,-72.021,-2.380,163.879
0.203,-0.248,0.870,-78.430,9.094,173.340
0.092,-0.265,0.785,-57.556,15.625,201.538
-0.028,-0.113,0.696,-63.049,21.301,250.061
-0.247,0.251,0.720,-101.135,13.794,291.443
-0.237,1.075,0.620,-121.643,15.015,298.889
-0.253,0.999,0.235,-79.346,-41.748,244.019
-0.426,1.393,0.860,-77.454,-95.154,179.443
-0.420,2.100,1.026,48.401,-5.310,58.289
-0.412,1.391,0.764,69.275,22.461,-62.012
-0.304,1.130,0.754,48.584,31.128,-119.385
-0.233,1.165,0.895,49.805,42.297,-164.368
-0.229,0.880,0.831,81.055,34.363,-196.106
-0.170,0.465,0.740,96.130,29.236,-230.713
-0.073,0.384,0.849,83.252,12.634,-230.041
-0.081,0.166,0.719,79.102,28.137,-233.215
0.084,-0.180,0.769,51.208,27.405,-242.493
0.190,-0.459,0.844,42.542,3.662,-232.483
0.284,-0.514,0.972,6.165,20.264,-188.599
0.280,-0.683,1.139,-20.691,21.606,-161.987
0.396,-1.004,0.848,-8.423,32.532,-104.370
0.424,-0.854,1.069,-21.240,0.244,-20.874
0.406,-0.681,1.054,4.639,8.362,41.016
0.419,-0.771,0.931,8.301,8.240,104.187
0.344,-0.655,0.830,-24.475,-5.127,190.491
0.192,-0.243,0.780,-48.523,-4.456,263.367
-0.054,0.018,0.756,-61.218,-14.587,285.278
-0.181,0.203,0.833,-55.481,-3.052,287.170
-0.293,0.653,0.977,-70.801,19.104,292.786
-0.149,1.304,0.753,-82.214,27.161,245.789
-0.128,1.046,0.425,-51.208,-20.813,161.743
-0.132,1.499,0.760,1.465,-23.682,53.589
-0.118,1.269,0.673,29.297,8.362,-37.964
-0.066,1.060,0.687,26.672,21.851,-68.176
-0.057,1.049,0.790,14.343,7.568,-99.976
-0.098,1.233,0.878,12.390,13.000,-158.630
-0.050,0.690,0.737,101.868,21.057,-204.956
0.097,0.274,0.699,92.834,-16.235,-213.745
0.150,-0.056,0.864,73.608,-54.626,-191.833

0.159,0.105,0.993,12.756,-31.738,-23.804
0.171,0.270,0.999,10.559,-13.062,9.521
0.223,0.207,0.956,2.991,-8.057,-18.982
0.221,0.137,0.953,7.385,-15.625,-37.903
0.178,0.154,0.976,2.014,-17.456,-15.686
0.150,0.254,0.966,-1.465,-9.644,-10.681
0.160,0.247,0.963,13.123,-20.935,-40.405
0.193,0.209,1.005,18.921,-40.161,-57.678
0.149,0.301,1.020,11.108,-38.940,-48.767
0.169,0.649,1.057,-10.803,-62.317,-34.973
0.130,0.810,1.092,-1.465,-55.115,-27.954
0.087,0.992,1.044,49.316,15.991,-130.249
-0.008,0.218,0.696,72.266,23.499,-243.896
-0.065,-0.194,0.858,40.955,-27.222,-222.046
0.006,-0.297,1.039,60.669,-36.865,-176.270
-0.100,-0.586,1.211,43.701,9.338,-137.085
-0.184,-0.743,1.194,27.466,32.715,-101.501
-0.214,-1.257,1.045,29.419,30.151,-34.790
-0.234,-1.265,0.990,-19.897,26.001,70.923
-0.246,-1.015,0.967,-62.317,41.138,152.466
-0.286,-0.712,0.915,-104.553,63.721,203.308
-0.370,-0.341,0.905,-132.324,119.202,230.469
-0.442,0.039,0.484,-122.742,145.630,302.307
-0.172,0.983,0.480,-180.908,103.271,370.178
-0.014,1.245,0.303,-78.613,69.458,374.634
-0.153,1.993,0.443,-66.345,33.447,284.729
0.011,2.031,0.415,26.184,26.611,100.830
0.074,1.862,0.466,83.801,25.696,2.563
0.041,1.692,0.471,44.067,-12.695,-68.726
-0.018,1.557,0.602,66.711,-38.879,-139.648
-0.180,1.422,0.647,106.201,-44.373,-232.361
-0.355,0.915,0.653,146.729,-30.762,-300.232
-0.422,0.403,0.543,154.297,6.714,-322.510
-0.416,-0.178,0.617,130.920,-11.841,-315.918
-0.342,-0.738,0.859,102.112,-55.481,-301.636
-0.250,-1.244,1.015,69.702,-45.288,-249.451
-0.237,-1.373,1.214,11.230,-33.875,-166.626
-0.203,-1.292,1.192,5.005,-11.597,-93.506
-0.223,-1.409,1.120,-34.119,9.644,-43.884
-0.180,-1.466,0.927,-41.138,21.118,30.701
-0.130,-1.292,0.793,-58.533,15.259,111.694
-0.194,-1.154,0.790,-78.125,6.714,184.326
-0.374,-0.801,0.800,-126.465,7.935,276.611
-0.551,-0.345,0.849,-192.688,24.658,347.412
-0.588,0.712,0.878,-241.333,66.223,368.835
-0.223,1.079,0.326,-148.743,76.721,370.300
-0.261,1.052,0.491,-93.018,8.484,216.858
-0.383,1.467,0.834,-81.909,43.274,193.115
-0.131,1.996,0.563,112.183,106.445,142.212
-0.133,1.574,0.321,59.814,23.987,21.851
-0.044,1.603,0.588,41.626,21.912,-45.715
-0.069,1.567,0.633,58.167,6.958,-127.014
-0.148,1.389,0.777,79.346,3.235,-198.853
-0.251,1.147,0.649,134.155,-3.662,-274.658
-0.348,0.631,0.688,150.574,-1.587,-311.462
-0.340,0.208,0.719,120.178,10.010,-336.853
-0.235,-0.118,0.704,93.933,-9.705,-315.857
-0.231,-0.802,0.823,70.068,-33.325,-296.570
-0.190,-1.260,1.094,22.766,-41.199,-227.722
-0.186,-1.377,1.252,-0.427,-28.015,-136.597
-0.064,-1.402,1.068,-22.217,3.296,-68.604
-0.052,-1.418,0.993,-117.981,1.831,6.836
0.067,-1.039,1.005,-140.747,6.775,86.548
-0.064,-0.934,1.122,-138.794,6.042,126.465
-0.273,-0.718,1.127,-103.088,5.432,211.365
-0.488,-0.200,1.065,-107.910,56.519,298.096
-0.386,0.679,0.908,-151.917,82.031,329.346
-0.283,0.682,0.457,-153.137,57.922,288.574
-0.386,0.571,0.448,-105.164,53.223,252.747
-0.440,1.259,0.509,-122.375,76.233,261.902
-0.269,1.770,0.203,-28.015,89.294,208.862
-0.263,1.311,0.195,39.795,47.058,100.098
-0.183,1.995,0.569,2.380,30.579,40.222
-0.132,2.301,0.500,77.515,35.767,-59.143
-0.369,1.395,0.280,146.362,-15.686,-169.983
-0.250,0.906,0.735,99.976,-17.578,-206.421
-0.220,1.152,0.739,108.093,-6.653,-263.123
-0.332,0.666,0.686,160.217,10.376,-328.857
-0.296,-0.056,0.582,124.390,-8.545,-306.030
-0.210,-0.019,0.987,54.321,-25.208,-293.091
-0.241,-0.620,0.905,76.111,-26.550,-281.067
-0.148,-1.319,1.122,26.855,-31.616,-201.721
-0.032,-1.489,1.218,-14.832,-10.376,-93.628
-0.021,-1.485,1.048,-22.095,10.742,-8.484
-0.002,-1.297,0.823,-68.115,2.380,47.668
-0.058,-0.993,0.969,-85.510,8.301,112.488
-0.087,-0.949,0.855,-58.838,21.179,178.589
-0.339,-0.446,1.060,-108.704,-0.488,267.334
-0.390,0.658,1.225,-158.875,59.814,322.021
-0.176,0.664,0.535,-138.855,117.798,306.702
-0.265,0.648,0.489,-127.258,63.477,279.419
-0.194,1.551,0.693,-130.249,5.554,271.790
-0.078,2.045,0.503,-44.128,41.443,172.852
-0.110,1.028,0.368,74.768,50.842,13.794
-0.083,1.181,0.634,57.922,38.147,27.710
0.059,1.634,0.517,78.613,87.280,-19.043
-0.084,1.306,0.598,26.672,-0.427,-111.084
-0.061,0.896,0.779,100.342,-7.080,-179.077
-0.048,0.592,0.676,100.403,-22.278,-204.163
-0.045,0.412,0.751,108.215,-52.429,-205.383
-0.012,0.182,0.880,136.719,-27.344,-205.078
0.042,-0.144,0.787,123.535,-22.400,-196.899
0.016,-0.283,1.045,70.679,-20.813,-191.772
0.037,-0.824,1.153,15.747,-8.118,-152.954
0.148,-0.806,1.171,-0.732,12.634,-84.167
0.196,-0.766,0.958,-6.409,18.372,-43.701
0.235,-0.858,0.925,-5.859,4.761,17.517
0.218,-0.694,0.905,-20.630,-6.226,83.435
0.180,-0.563,0.889,-36.621,-7.812,133.911
0.138,-0.161,0.935,-61.646,-16.418,153.503
0.085,0.200,0.996,-61.768,1.526,146.667
0.127,0.434,1.094,-46.997,19.287,141.785
0.178,0.355,0.862,49.316,109.497,108.765
0.244,0.677,0.836,-19.043,59.326,79.163
0.266,0.778,0.947,-7.446,9.155,56.885
0.302,0.766,0.885,-2.502,-1.465,19.775
0.256,0.535,0.913,-7.263,-19.958,-8.728
0.239,0.472,0.943,-8.118,-18.860,-16.724
0.246,0.539,0.970,-2.075,-17.395,-30.701
0.215,0.491,0.964,-0.549,-20.874,-54.932
0.208,0.400,1.058,8.118,-26.367,-69.519
0.208,0.331,0.997,36.438,-12.878,-81.848
0.204,0.047,0.857,53.772,3.723,-99.304
0.229,-0.135,0.862,27.039,-2.136,-90.576
0.194,0.045,1.111,-6.409,-14.465,-89.722

0.244,0.129,0.968,-0.427,-1.648,3.174
0.247,0.147,0.975,0.977,1.221,1.465
0.241,0.125,0.959,0.671,-1.160,3.784
0.249,0.141,0.961,0.305,-0.305,3.906
0.246,0.147,0.973,-0.183,-1.160,3.357
0.240,0.122,0.961,1.160,-0.061,4.761
0.241,0.134,0.956,-0.549,-1.831,6.714
0.242,0.172,0.984,-2.686,-1.343,5.981
0.251,0.307,1.018,-5.676,0.610,3.601
0.268,0.465,0.993,-8.850,6.775,-12.512
0.256,0.332,0.936,2.502,6.653,-31.250
0.252,0.615,1.051,-8.850,7.202,-44.922
0.254,0.744,0.994,-9.094,20.081,-87.219
0.252,0.468,0.852,15.930,19.470,-128.601
0.233,0.142,0.955,40.344,3.418,-141.235
0.200,-0.074,0.999,50.232,2.136,-142.822
0.176,-0.401,1.071,15.198,4.272,-141.418
0.175,-0.837,1.240,-32.043,7.935,-119.019
0.163,-1.141,1.211,-24.597,26.855,-61.340
0.142,-1.447,1.085,-30.579,38.696,15.625
0.055,-1.316,1.018,-75.256,45.105,117.554
-0.133,-1.076,1.008,-142.700,50.110,210.083
-0.296,-0.562,1.059,-191.284,71.045,285.461
-0.382,0.231,0.814,-204.529,152.039,337.219
-0.468,0.538,0.185,-223.633,176.086,346.558
-0.491,1.073,-0.378,-224.609,137.634,333.496
-0.454,1.910,-0.370,-197.083,78.857,263.794
-0.290,2.393,-0.500,-93.201,65.674,128.174
-0.192,2.212,-0.565,-57.922,-2.380,0.916
-0.178,1.741,-0.307,31.799,-26.306,-53.284
-0.178,1.496,-0.195,89.050,-59.082,-90.149
-0.276,1.313,0.150,135.071,-66.284,-134.766
-0.308,1.022,0.112,156.921,-62.500,-163.696
-0.287,0.809,0.348,93.018,-93.872,-192.993
-0.188,0.542,0.607,124.695,-56.335,-215.820
-0.100,0.066,0.654,135.254,-14.526,-238.342
0.285,-0.098,0.899,123.962,4.333,-238.037
0.203,-0.790,1.245,-24.231,-102.295,-232.361
0.504,-0.797,1.825,-114.197,-235.779,-153.687
0.379,-0.490,1.772,-173.401,-227.661,-82.153
0.197,-0.198,1.966,-150.146,-135.010,-67.871
0.054,-0.098,1.685,-92.224,40.527,-73.853
0.126,-0.148,1.454,-94.299,172.302,-78.369
0.148,0.094,0.880,-55.420,243.469,38.879
0.075,0.333,0.552,-102.173,259.888,123.047
0.124,0.336,0.387,-122.070,216.797,143.860
0.096,0.892,0.073,-159.058,160.583,147.827
0.234,1.046,-0.357,-95.703,164.856,151.672
0.147,0.982,-0.322,-43.945,133.301,175.415
0.070,0.913,-0.304,-10.925,118.347,153.442
0.169,1.262,-0.358,-28.320,41.077,99.854
0.154,1.545,-0.606,9.460,13.245,45.105
0.189,1.298,-0.605,104.126,26.184,16.541
0.182,1.250,-0.558,111.328,3.479,6.226
0.190,1.397,-0.383,102.966,-66.284,-38.147
0.132,1.360,-0.185,137.695,-119.385,-84.656
0.019,1.138,-0.082,178.040,-137.024,-104.309
0.003,0.918,0.122,162.842,-167.969,-116.455
-0.021,0.787,0.352,162.659,-172.913,-127.075
-0.074,0.626,0.499,181.519,-173.584,-151.489
-0.106,0.432,0.632,196.106,-186.768,-161.255
-0.113,0.243,0.954,196.716,-149.231,-159.973
-0.171,-0.178,1.068,188.416,-114.380,-146.606
-0.079,-0.533,1.291,136.597,-95.398,-103.821
-0.042,-0.557,1.399,90.576,-41.016,-73.242
-0.104,-0.586,1.448,46.509,-24.292,-53.345
-0.085,-0.678,1.500,-2.136,11.475,-24.414
-0.106,-0.810,1.372,-11.658,31.311,-0.061
-0.029,-0.689,1.207,-33.936,47.729,58.105
-0.026,-0.448,1.088,-44.434,59.448,109.863
-0.034,-0.205,0.989,-56.702,92.407,142.517
-0.079,0.027,1.015,-86.121,103.943,158.508
-0.007,0.303,0.777,-79.834,136.230,164.307
0.022,0.706,0.583,-70.068,121.765,160.217
0.193,0.806,0.620,-56.641,73.975,163.513
0.095,0.831,0.522,-78.735,33.142,152.771
0.146,0.855,0.523,-45.288,36.133,119.507
0.130,0.774,0.408,7.568,30.212,83.557
0.177,1.358,0.495,-43.335,50.903,49.072
0.240,1.545,0.398,20.447,67.749,-0.305
0.244,1.322,0.473,55.176,-19.470,-37.292
0.207,1.263,0.684,52.734,-36.865,-70.679
0.147,1.064,0.700,100.708,-12.939,-121.643
0.120,0.837,0.720,143.005,-9.766,-158.508
0.135,0.501,0.756,152.039,-19.043,-196.716
0.121,0.265,0.875,129.761,-32.288,-226.562
0.086,-0.045,0.913,140.503,-14.526,-230.041
0.087,-0.541,0.802,106.934,-23.071,-192.505
0.137,-0.764,1.042,20.142,-35.828,-143.799
0.073,-0.957,1.120,4.883,0.000,-93.384
0.121,-1.113,0.980,-33.630,-1.953,-36.926
0.119,-1.171,0.964,-23.865,3.784,30.457
0.166,-0.990,0.852,-29.114,-6.592,99.121
0.145,-0.769,0.887,-30.457,-3.357,154.907
0.071,-0.516,0.900,-72.327,-2.686,173.889
0.037,-0.239,0.924,-62.317,14.282,198.120
0.029,-0.072,0.711,-1.343,20.020,213.989
-0.038,0.193,0.783,2.625,-10.254,223.267
-0.115,0.531,1.001,25.024,-36.621,222.717
-0.064,0.975,1.091,-68.420,-23.499,200.378
0.054,1.350,0.946,-119.812,29.236,167.053
0.208,1.297,0.779,-21.667,81.482,127.808
0.100,1.148,0.653,18.494,64.087,43.457
0.161,1.003,0.853,12.695,16.052,-34.180
0.176,1.048,0.829,17.578,24.902,-57.800
0.207,0.959,0.874,37.598,1.160,-114.136
0.130,0.943,0.973,43.213,-3.906,-170.593
0.126,0.691,0.910,67.261,17.700,-239.319
0.074,0.433,0.896,66.711,27.710,-270.996
-0.011,0.052,0.862,25.513,18.799,-287.231
-0.011,-0.238,0.904,39.307,-6.897,-263.367
-0.054,-0.729,0.951,34.607,-21.118,-227.112
0.062,-0.821,0.964,9.338,-18.066,-158.630
0.110,-1.056,0.721,9.277,-17.700,-88.684
0.060,-0.991,1.036,-71.472,-43.823,24.170
0.176,-1.071,0.895,-25.391,49.927,45.715
0.264,-0.985,0.795,-27.527,41.443,64.575
0.250,-0.871,0.787,-22.583,31.372,65.613
0.213,-0.669,0.850,-39.612,22.522,101.624
0.168,-0.583,0.927,-39.612,41.016,134.583
0.193,-0.318,0.879,-57.007,61.157,188.843
0.110,0.031,0.950,-138.672,42.297,240.173
0.164,0.893,0.825,-160.278,9.338,245.850
0.160,0.805,0.468,-239.502,41.931,234.375
0.263,0.976,0.815,-117.859,74.585,166.016

0.058,-0.077,0.999,-1.160,0.610,-0.549
0.059,-0.108,0.984,1.038,1.343,-2.502
0.052,-0.120,1.008,1.953,-1.648,-0.549
0.055,-0.119,0.985,1.099,0.916,0.061
0.051,-0.122,0.990,-1.648,-1.892,-1.709
0.043,-0.132,1.002,-3.540,-0.671,-1.038
0.043,-0.121,1.013,-3.174,-5.127,3.479
0.052,-0.104,1.016,1.831,0.488,5.249
0.055,-0.074,1.020,1.099,4.578,-0.061
0.044,-0.122,0.994,0.916,0.366,-1.526
0.041,-0.114,1.008,0.366,-0.488,1.343
0.051,-0.099,0.998,2.686,4.517,1.953
0.045,-0.116,1.000,2.380,3.540,-2.014
0.046,-0.139,0.990,-2.258,-1.648,1.404
0.061,-0.107,0.995,-2.502,1.282,2.869
0.059,-0.107,1.003,0.671,4.089,0.732
0.072,-0.060,1.022,-1.709,1.526,-1.221
0.083,-0.066,1.016,-0.793,2.563,-0.977
0.092,-0.051,1.002,0.671,-1.343,-4.456
0.066,-0.109,1.002,8.301,2.441,-9.033
0.016,-0.258,1.012,1.526,-0.916,-7.141
-0.038,-0.409,1.122,-12.329,10.498,-1.892
-0.101,-0.526,1.121,-24.292,28.015,10.742
-0.130,-0.567,1.062,-23.926,34.241,32.898
-0.190,-0.768,1.002,-21.545,34.607,56.213
-0.195,-0.753,0.906,-35.095,49.194,97.351
-0.144,-0.532,0.783,-80.261,56.763,147.583
-0.207,-0.158,0.688,-122.803,55.176,189.209
-0.124,0.446,0.815,-112.671,64.148,243.042
0.146,0.880,0.870,-92.041,86.121,301.086
0.049,1.139,0.752,-55.725,108.948,331.299
0.143,1.622,0.833,-57.495,76.660,218.079
0.175,1.739,0.792,-16.418,61.096,57.556
0.187,1.478,0.673,68.726,56.458,-54.260
0.178,1.164,0.662,94.543,19.348,-126.038
0.096,1.126,0.813,95.947,2.014,-176.941
-0.083,0.683,0.698,94.910,1.038,-243.774
-0.080,0.373,0.806,56.519,-11.169,-278.748
-0.205,0.080,0.761,56.824,-11.475,-285.095
-0.289,-0.323,0.795,55.908,-21.423,-276.306
-0.303,-1.098,0.882,58.167,-40.161,-214.355
-0.045,-1.453,1.062,22.339,-34.302,-162.292
-0.041,-1.680,1.123,24.414,19.043,-117.004
-0.001,-1.549,0.901,-31.006,27.405,3.784
0.032,-1.315,0.810,-5.310,13.855,82.031
0.006,-1.227,0.782,-20.142,-8.179,156.860
-0.096,-1.120,0.764,-65.613,-20.447,216.797
-0.194,-0.758,0.839,-111.938,-16.113,269.531
-0.329,-0.052,0.777,-149.292,-1.709,311.707
-0.247,0.335,0.545,-148.682,-16.113,330.383
-0.411,0.574,0.895,-162.109,-37.964,320.496
-0.244,1.889,0.918,-185.852,22.156,303.345
0.001,2.058,0.187,18.372,74.707,183.777
-0.065,1.165,0.732,51.025,19.592,7.202
-0.071,1.320,0.855,67.627,59.204,-4.883
0.032,1.531,0.811,133.850,68.909,-77.271
-0.008,1.015,0.752,106.079,21.545,-129.822
-0.036,0.769,0.914,74.951,-13.306,-172.974
-0.031,0.678,0.922,84.961,-6.042,-199.707
-0.091,0.357,0.930,86.426,-11.536,-225.525
-0.098,0.044,0.934,95.398,9.216,-225.464
-0.079,-0.434,0.768,90.881,39.185,-220.947
0.040,-0.779,0.906,0.244,11.475,-226.624
0.014,-1.063,0.912,6.653,16.541,-203.674
0.058,-1.243,0.929,10.620,11.169,-143.494
0.090,-1.325,0.832,6.287,13.123,-70.557
0.099,-1.308,0.792,-9.277,7.751,-9.155
0.124,-1.276,0.704,-23.926,-6.897,52.734
0.131,-1.077,0.729,-13.977,-16.418,104.919
0.062,-1.026,0.658,-39.734,-32.410,163.574
-0.044,-0.817,0.728,-70.129,-29.663,229.370
-0.172,-0.452,0.757,-138.123,-41.260,270.935
-0.283,0.556,0.971,-168.213,-41.504,273.865
-0.053,0.930,0.863,-115.540,-16.907,237.122
-0.190,0.807,0.836,-96.741,1.099,194.031
-0.015,1.519,1.110,-33.264,22.766,120.178
0.060,1.180,1.038,94.666,58.289,67.932
0.024,0.845,0.808,79.163,42.969,15.259
0.059,0.876,1.008,19.348,14.587,-46.936
0.139,0.895,0.940,21.484,20.691,-65.613
0.109,0.686,1.018,10.193,13.794,-101.562
0.114,0.633,0.991,45.593,21.057,-138.428
0.104,0.428,0.996,61.401,25.330,-176.025
0.078,0.191,0.782,71.655,17.517,-199.707
0.116,-0.022,0.799,33.142,-22.095,-190.857
0.044,-0.287,0.986,21.301,-43.762,-177.612
0.139,-0.546,0.893,28.992,19.897,-179.199
0.119,-0.748,0.830,25.024,9.216,-137.573
0.136,-0.901,0.985,15.015,-3.357,-87.952
0.160,-0.701,0.973,4.700,1.831,-32.776
0.206,-0.701,0.918,-9.949,0.305,-6.531
0.216,-0.699,0.891,-10.864,-1.953,35.889
0.211,-0.627,0.849,-14.465,-7.874,80.872
0.192,-0.539,0.855,-24.963,-13.184,118.713
0.157,-0.299,0.870,-45.410,-22.766,147.278
0.178,0.105,0.943,-49.744,-26.184,139.099
0.165,0.178,0.840,-22.583,-7.019,123.657
0.177,0.281,0.808,-41.138,-18.066,119.080
0.167,0.749,1.014,-41.748,-22.827,86.670
0.162,0.695,1.072,4.150,-18.494,39.673
0.135,0.503,1.159,16.235,-19.958,9.155
0.185,0.482,1.131,22.339,0.916,-19.531
0.179,0.310,1.033,7.568,4.150,-39.917
0.177,0.268,1.071,5.310,10.010,-50.903
0.193,0.162,0.969,11.780,14.526,-57.617
0.195,0.140,1.003,10.864,3.174,-62.744
0.203,0.071,0.968,19.836,7.446,-65.796
0.195,-0.093,0.886,18.494,8.057,-64.636
0.202,-0.136,0.923,12.207,-1.953,-60.791
0.206,-0.286,0.920,20.569,0.793,-65.735
0.188,-0.499,0.934,16.968,-3.723,-50.659
0.179,-0.574,1.029,-3.662,-3.540,-18.433
0.180,-0.444,0.965,-8.667,4.761,23.376
0.210,-0.321,0.957,-19.592,-2.502,50.781
0.182,-0.237,0.962,-26.978,-6.836,62.195
0.143,-0.038,1.039,-32.959,1.770,70.862
0.181,0.095,0.963,-19.775,13.123,76.599
0.193,0.172,0.927,-20.752,9.521,77.209
0.211,0.250,0.992,-32.043,6.226,66.772
0.202,0.258,0.960,-34.363,16.663,59.631
0.216,0.422,0.959,-44.189,25.635,51.270
0.234,0.554,0.953,-31.189,31.616,33.325
0.231,0.664,0.948,-6.958,17.456,5.798
0.250,0.433,0.896,14.404,-5.676,-17.700
0.257,0.323,0.929,16.479,2.075,-24.109

0.783,0.110,0.587,11.108,3.845,-27.039
0.723,0.220,0.843,28.381,30.273,-7.141
0.812,0.080,0.411,68.970,114.624,-29.175
0.978,-0.008,0.382,86.304,103.638,-31.067
0.917,0.086,0.436,36.560,50.720,22.034
0.969,0.012,0.465,33.020,19.958,12.878
0.900,0.070,0.454,37.170,-12.939,9.705
0.859,0.124,0.553,23.560,-19.226,-2.991
0.839,0.154,0.562,19.714,-12.207,-7.019
0.850,0.050,0.477,-8.362,-13.550,-11.536
1.151,-0.432,0.381,-96.558,-35.095,64.026
1.389,-0.745,0.428,-84.290,-67.078,199.036
0.997,-0.505,0.290,184.937,-95.337,260.864
1.061,-0.251,-0.118,268.494,-134.705,236.938
0.586,-0.090,0.651,138.977,-64.514,221.313
0.236,0.270,0.886,78.491,-61.218,208.740
-0.046,0.607,0.921,91.919,-56.946,132.141
-0.104,0.725,1.028,112.915,-49.438,75.745
-0.185,0.748,1.392,90.820,-53.711,67.139
-0.358,0.912,1.528,43.335,50.415,10.681
-0.381,0.896,1.218,15.991,114.014,-51.453
-0.036,0.756,1.207,10.803,172.546,-93.506
0.400,0.289,1.299,62.195,227.783,-108.398
0.581,0.125,1.054,-42.847,140.808,-154.907
0.510,-0.104,0.722,-50.842,131.348,-182.007
0.780,-0.364,0.580,-67.688,168.884,-193.481
0.795,-0.444,0.466,-46.387,207.703,-157.166
0.678,-0.436,0.302,-46.265,242.310,-149.658
0.776,-0.506,0.043,-71.472,236.328,-113.403
0.814,-0.578,-0.079,-85.083,215.820,-88.623
0.641,-0.548,-0.248,-62.256,228.333,-58.838
0.504,-0.675,-0.683,-43.762,188.660,-46.326
1.036,-0.785,-0.885,-12.939,190.613,-63.354
0.950,-0.857,-1.012,-35.706,93.384,7.874
0.893,-0.769,-1.137,-43.457,-16.907,82.336
0.880,-0.750,-1.188,-0.122,-96.008,98.450
1.046,-0.732,-1.045,55.847,-154.297,130.737
1.073,-0.654,-0.842,83.801,-181.641,169.922
0.934,-0.490,-0.578,108.704,-218.750,197.510
0.700,-0.374,-0.332,143.677,-225.403,200.745
0.625,-0.257,-0.090,167.725,-223.328,206.726
0.482,-0.139,0.176,194.336,-214.722,224.915
0.335,-0.074,0.371,177.002,-202.270,215.149
0.199,-0.023,0.480,173.340,-201.050,204.285
-0.072,0.091,0.815,173.340,-237.488,203.186
-0.110,0.253,1.086,149.902,-223.999,205.688
-0.215,0.144,1.073,151.428,-136.719,169.434
-0.349,0.339,1.441,170.105,-75.745,83.984
-0.204,0.274,1.392,130.676,18.921,64.697
-0.303,0.239,1.193,102.112,-77.820,45.654
-0.304,0.181,1.563,89.233,-54.871,27.283
-0.384,0.182,1.834,34.485,-23.804,-2.197
-0.408,0.176,1.543,-2.441,104.797,-55.420
-0.211,0.120,1.380,-49.072,186.035,-87.585
0.008,-0.036,1.369,-100.586,182.617,-113.342
0.370,-0.164,1.287,-148.132,183.960,-148.193
0.313,-0.081,0.992,-144.836,234.741,-128.418
0.244,-0.121,0.617,-148.743,306.641,-118.469
0.631,-0.347,0.575,-189.392,324.097,-122.131
0.674,-0.230,0.201,-216.492,379.944,-92.957
0.518,-0.123,-0.173,-183.472,329.346,-96.619
0.607,-0.340,-0.197,-173.279,257.690,-89.111
0.644,-0.415,-0.466,-170.410,213.867,-83.191
0.620,-0.399,-0.663,-118.286,202.637,-111.206
0.574,-0.413,-0.955,-89.355,218.323,-111.267
0.759,-0.644,-1.218,-138.428,155.701,-88.135
1.017,-0.719,-1.343,-104.309,-12.024,-1.587
0.786,-0.543,-1.224,-27.344,-92.468,57.434
0.918,-0.405,-1.071,16.846,-124.817,43.762
1.022,-0.450,-0.990,50.293,-131.409,43.518
1.065,-0.454,-0.917,86.548,-150.513,63.171
0.946,-0.437,-0.838,117.615,-189.087,83.008
0.900,-0.359,-0.607,135.498,-227.966,100.159
0.805,-0.326,-0.281,149.597,-246.094,124.084
0.635,-0.264,-0.081,151.245,-248.108,131.653
0.444,-0.053,0.075,173.523,-240.662,127.258
0.402,-0.116,0.293,202.637,-205.505,108.215
0.452,-0.143,0.577,214.294,-194.214,98.633
0.297,-0.001,0.736,161.133,-195.190,96.313
0.330,-0.113,0.969,129.578,-200.500,83.679
0.183,0.070,1.248,125.000,-177.185,75.439
0.153,0.141,1.538,98.816,-149.231,37.048
-0.130,0.096,1.546,47.119,-137.390,24.475
-0.078,0.156,1.646,8.728,19.165,-11.536
0.053,0.013,1.597,39.856,145.508,-54.687
0.203,0.069,1.186,-124.573,231.323,-84.412
0.561,-0.048,1.006,-121.765,233.398,-92.896
0.826,-0.032,1.046,-127.930,158.325,-83.679
0.647,0.106,0.970,-101.624,81.177,-64.209
0.418,0.150,0.937,-130.188,71.777,-64.941
0.399,0.019,0.774,-135.803,98.083,-69.275
0.549,-0.188,0.543,-151.367,136.658,-113.708
0.574,-0.160,0.479,-142.761,171.265,-122.314
0.641,-0.345,-0.005,-148.499,216.614,-102.356
0.875,-0.538,-0.357,-113.098,187.988,-88.684
0.901,-0.473,-0.407,-58.594,213.257,-116.333
0.824,-0.426,-0.392,-37.842,208.008,-87.280
0.960,-0.705,-0.757,-46.936,160.767,-55.542
1.438,-0.696,-1.080,-87.463,17.090,-15.381
1.203,-0.573,-0.986,-22.766,-61.523,84.717
1.173,-0.517,-0.963,41.626,-55.603,67.017
1.236,-0.511,-0.871,40.344,-126.038,81.604
1.148,-0.464,-0.673,82.153,-157.043,122.314
1.006,-0.451,-0.541,111.694,-185.791,139.771
0.817,-0.217,-0.233,161.011,-222.168,162.720
0.501,-0.151,0.135,158.081,-224.792,192.078
0.349,-0.106,0.373,148.010,-228.333,186.096
0.054,-0.016,0.668,127.258,-220.520,109.131
0.046,0.309,0.844,121.887,-194.031,84.656
0.002,0.200,1.040,117.310,-161.804,91.248
0.155,0.205,1.078,86.365,-101.257,34.424
-0.109,0.286,1.932,172.668,-18.188,11.475
0.463,-0.087,1.271,97.778,42.480,43.396
0.515,0.428,0.742,-46.631,69.580,-51.941
0.559,0.083,1.024,89.539,76.294,15.381
0.751,0.086,1.154,78.247,82.031,-21.362
0.708,-0.033,0.995,21.301,89.661,3.784
1.122,-0.261,1.144,-96.741,22.827,-30.518
0.568,0.222,0.781,-68.115,-10.376,-40.405
0.743,0.285,0.662,-30.457,62.805,24.597
0.213,-0.022,1.034,-31.128,77.454,26.550
0.724,0.330,0.251,1.526,214.416,7.446
0.402,-0.403,0.675,-75.195,194.153,-141.357
0.121,-0.587,0.576,-133.362,288.208,-74.524
0.391,-0.226,-0.186,-100.708,427.551,51.270

0.752,0.422,0.354,-52.063,-14.099,-32.288
0.733,0.424,0.448,-55.420,8.118,-44.312
0.853,0.382,0.360,-10.376,26.123,-33.630
0.785,0.296,0.315,-0.061,-8.179,-12.451
0.765,0.353,0.490,-0.549,-15.076,-6.104
0.798,0.419,0.478,-9.644,-11.719,1.404
0.740,0.427,0.568,-28.870,-4.456,5.310
0.760,0.527,0.535,-27.222,5.432,-15.625
0.765,0.408,0.600,-9.521,-7.690,-19.592
0.740,0.420,0.530,-0.305,-12.817,-14.648
0.702,0.416,0.612,-2.869,-16.479,-13.733
0.733,0.411,0.598,-9.338,-4.517,-13.000
0.760,0.388,0.502,-24.475,8.362,-8.179
0.827,0.435,0.440,-17.395,14.404,4.578
0.834,0.516,0.383,-15.564,-1.648,0.977
0.676,0.324,0.522,11.780,-33.264,-0.244
0.650,0.416,0.646,12.512,-12.329,14.587
0.702,0.481,0.564,8.301,6.042,12.573
0.713,0.410,0.606,3.357,-2.319,-2.869
0.674,0.379,0.624,7.263,-10.925,4.028
0.646,0.412,0.621,5.371,-2.319,5.188
0.701,0.431,0.532,8.423,-1.465,3.296
0.751,0.527,0.504,4.395,-3.113,-3.601
0.812,0.402,0.475,7.385,-19.226,-12.756
0.696,0.446,0.568,13.306,-21.912,0.244
0.805,0.568,0.464,14.771,-10.559,-7.507
0.771,0.640,0.605,38.757,-20.081,-11.658
0.459,0.391,1.235,28.809,22.522,-17.212
0.188,0.555,1.270,-68.665,59.570,-70.984
0.076,0.509,1.201,-124.451,76.538,-202.759
0.024,0.304,0.801,-121.460,134.827,-290.039
0.181,0.271,0.382,-122.559,180.847,-403.748
0.612,-0.757,0.148,-68.359,161.987,-387.634
1.563,-1.018,-0.023,-19.470,208.496,-173.767
1.333,-0.583,-0.852,-26.062,127.625,-53.528
0.802,-0.618,-0.267,-85.571,-7.690,32.715
0.972,-0.260,-0.029,-63.232,37.231,7.812
1.291,-0.607,-0.345,15.076,25.391,18.799
1.285,-0.756,-0.465,23.193,-26.306,97.107
1.193,-0.617,-0.259,11.902,-53.223,140.442
1.378,-0.464,-0.287,50.049,-56.641,168.457
1.146,-0.444,-0.311,93.628,-88.501,182.190
1.013,-0.365,-0.099,77.209,-134.644,194.214
0.736,-0.235,0.078,51.392,-160.522,221.313
0.469,0.097,-0.029,87.341,-138.794,236.877
0.591,-0.070,0.234,53.894,-174.194,219.055
0.361,0.448,0.408,12.939,-206.055,264.893
-0.258,0.262,0.451,58.838,-205.261,236.023
0.064,0.599,1.162,89.722,-131.653,212.463
-0.139,0.531,0.686,107.117,-68.298,194.580
-0.360,0.660,1.160,134.216,-114.075,172.058
-0.630,0.514,1.272,99.854,-106.567,140.747
-0.926,0.774,1.504,71.411,-56.396,81.116
-0.638,0.591,1.100,50.293,41.443,-12.634
-0.530,0.624,1.021,38.635,17.700,-54.443
-0.797,0.552,1.352,20.752,27.649,-94.421
-0.410,0.654,1.200,-12.634,92.407,-166.443
0.202,0.191,1.131,-79.224,101.135,-260.742
0.384,0.268,0.822,-84.106,70.251,-242.187
0.086,0.395,1.148,-50.049,101.257,-236.755
0.485,0.544,0.907,-123.962,188.721,-308.167
0.776,-0.045,0.074,41.504,197.754,-299.438
0.792,-0.641,-0.302,368.225,169.495,-169.800
1.138,0.090,0.051,354.309,89.905,-55.115
0.554,-0.193,-0.210,72.144,12.878,-134.277
0.712,-0.220,1.058,-152.039,38.452,-143.433
0.851,-0.141,0.489,-119.812,60.974,-116.760
0.755,0.010,1.164,-69.946,152.893,-148.254
0.943,-0.685,0.054,-48.584,160.095,-112.732
0.818,-0.141,0.311,-57.739,24.475,-128.784
0.617,-0.291,0.334,-50.415,34.790,-153.442
0.742,-0.791,0.282,5.432,46.265,-160.767
0.824,-1.263,0.177,45.166,57.800,-85.327
0.766,-1.501,0.140,16.785,34.485,-55.054
0.751,-1.837,0.128,2.441,48.401,67.017
0.565,-1.714,-0.388,-4.211,59.998,213.989
0.281,-1.158,-0.367,50.415,-15.564,323.303
0.215,-0.790,-0.212,133.972,-219.971,352.539
-0.132,-0.421,0.635,156.189,-292.236,371.094
0.082,0.020,0.686,67.322,-321.716,365.784
-0.073,1.054,1.412,-192.078,-328.308,363.403
-0.011,1.022,0.406,-277.161,-172.607,294.250
-0.376,0.223,0.342,-236.511,-206.055,195.251
-0.843,2.179,0.523,-332.520,-152.710,272.156
0.025,0.787,0.570,-3.418,-130.371,-46.265
-0.286,1.603,0.597,199.097,10.498,81.848
-0.240,1.295,0.521,29.541,31.860,-72.083
-0.115,1.282,0.841,60.120,46.326,-140.686
-0.051,1.061,0.670,8.728,87.158,-185.730
0.068,0.665,0.527,53.772,49.622,-177.124
0.209,0.729,0.740,119.446,21.851,-171.997
0.274,0.409,0.621,176.453,10.803,-257.935
0.530,-0.262,0.657,68.848,-39.734,-227.295
0.502,-0.080,1.063,68.787,-34.180,-149.292
0.575,-0.010,0.997,63.599,25.696,-148.621
0.607,-0.400,0.760,24.353,20.081,-122.681
0.668,-0.470,0.792,-13.489,5.554,-19.531
0.643,-0.095,0.713,-23.315,2.441,8.484
0.642,0.230,0.817,-51.086,-5.859,15.137
0.552,0.086,0.776,-50.049,8.118,-19.653
0.700,-0.078,0.670,-82.581,7.324,-11.841
0.465,0.105,0.409,-215.515,-46.204,-9.827
0.516,0.358,0.958,-224.243,-62.317,-18.616
0.745,0.489,0.787,-62.683,20.569,2.075
0.542,0.315,0.697,-30.640,-13.306,-36.133
0.621,0.201,0.769,-71.411,-5.249,-41.809
0.603,0.374,0.561,4.150,26.123,-24.170
0.439,0.441,0.620,-35.706,-33.936,-16.235
0.390,0.397,0.705,-77.698,-50.476,-27.893
0.841,0.415,0.807,-111.206,-37.598,1.282
0.630,0.677,0.818,-137.390,-13.977,13.794
0.474,0.473,0.608,-154.907,-12.207,-24.841
0.681,0.432,0.988,-210.449,-12.634,-27.222
0.563,0.616,0.654,-48.035,67.566,3.418
0.693,0.876,0.296,-26.855,57.007,-14.160
0.539,0.586,0.317,-10.803,-3.967,-13.611
0.646,0.312,0.783,123.413,41.565,48.828
0.574,0.542,0.590,206.238,82.214,78.308
0.570,0.816,0.339,129.272,15.381,19.104
0.607,0.469,0.694,21.118,-42.603,-30.640
0.607,0.506,0.603,25.818,-7.507,-7.507
0.570,0.502,0.729,15.381,13.184,-25.696
0.662,0.451,0.661,17.517,29.907,-18.982
0.609,0.327,0.636,35.339,-19.287,-22.888
0.647,0.483,0.723,-10.498,35.645,27.710

0.992,-0.020,-0.102,112.671,-42.908,-33.447
1.060,0.053,-0.033,-19.836,1.770,34.363
0.915,-0.007,-0.395,105.896,41.199,9.888
0.811,0.187,-0.262,102.173,42.969,-39.063
0.967,0.020,-0.194,26.855,92.651,-0.610
0.881,0.020,-0.310,35.400,154.846,-7.141
0.970,0.115,-0.531,11.230,104.370,-2.686
0.846,0.062,-0.487,36.926,-44.739,-2.686
0.896,0.027,-0.322,45.837,-28.381,22.644
0.942,0.109,-0.286,32.043,5.310,24.231
1.030,0.126,-0.335,35.095,17.639,17.578
0.980,0.149,-0.196,43.274,47.180,7.629
1.031,0.220,-0.194,65.613,40.771,34.790
1.020,0.193,-0.110,65.918,89.416,44.373
0.827,0.146,-0.050,40.039,97.717,57.312
0.779,0.213,-0.468,-1.587,85.510,68.359
0.657,0.234,-0.939,-34.912,34.363,65.369
0.533,0.331,-1.391,-6.348,-0.427,49.316
0.326,0.403,-2.008,65.308,-64.697,-21.973
0.234,0.428,-1.896,129.700,-161.438,-73.914
0.146,0.221,-1.332,213.196,-182.983,-85.754
0.224,0.098,-0.936,241.882,-208.740,-134.521
0.516,-0.021,-0.293,286.438,-203.247,-171.936
0.854,-0.610,0.272,287.231,-179.321,-159.851
0.975,-0.555,0.547,264.099,-185.852,-102.539
0.834,-0.559,1.070,237.366,-226.929,-73.792
0.767,-0.615,1.282,219.543,-110.718,-60.059
0.870,-0.701,1.255,167.969,-4.028,-32.837
0.813,-0.584,1.320,58.960,-3.906,3.601
0.864,-0.569,1.094,-38.330,41.016,29.968
0.959,-0.570,0.873,-77.209,73.669,31.677
0.959,-0.524,0.704,-114.319,109.375,60.669
0.908,-0.415,0.468,-161.316,134.827,89.111
0.845,-0.291,0.239,-205.627,155.884,107.849
0.785,-0.175,-0.033,-224.060,184.814,129.456
0.629,0.042,-0.227,-219.482,190.735,140.503
0.488,0.187,-0.390,-204.956,199.097,131.958
0.442,0.282,-0.563,-187.378,195.862,109.009
0.386,0.325,-0.840,-180.847,168.274,86.304
0.337,0.301,-1.001,-157.593,155.640,57.922
0.351,0.285,-1.339,-148.071,100.159,36.316
0.317,0.304,-1.501,-117.249,20.630,18.921
0.288,0.346,-1.739,-81.909,-30.457,-5.371
0.294,0.400,-1.873,8.606,-95.154,-28.503
0.308,0.302,-1.588,111.389,-158.569,-63.049
0.409,0.131,-1.271,160.461,-208.496,-98.999
0.450,-0.014,-0.904,194.763,-244.141,-115.295
0.552,-0.156,-0.534,218.262,-243.896,-116.821
0.581,-0.210,-0.249,233.582,-245.361,-116.821
0.649,-0.376,0.052,250.305,-237.915,-117.554
0.836,-0.710,0.490,252.624,-225.159,-99.854
0.685,-0.478,0.774,225.525,-227.783,-41.626
0.634,-0.620,0.937,184.265,-164.490,-30.823
0.798,-0.783,1.313,179.687,-117.676,-23.193
0.704,-0.796,1.607,158.203,-73.914,17.334
0.773,-0.833,1.485,-8.972,35.828,1.099
0.867,-0.771,1.052,-148.560,105.469,17.761
0.879,-0.698,0.737,-199.158,123.718,53.589
0.866,-0.585,0.522,-232.300,155.701,90.942
0.807,-0.448,0.262,-289.673,185.852,121.277
0.746,-0.282,-0.050,-327.637,192.444,119.202
0.680,-0.152,-0.375,-306.702,227.783,115.845
0.587,0.027,-0.629,-263.794,260.742,115.723
0.469,0.153,-0.909,-239.014,246.887,100.952
0.417,0.238,-1.065,-176.453,170.532,68.237
0.475,0.071,-1.343,-146.240,80.139,54.810
0.482,0.073,-1.520,-139.526,-45.288,38.025
0.366,0.221,-1.530,-44.495,-110.413,24.597
0.323,0.277,-1.340,66.650,-94.849,-10.559
0.420,0.221,-1.262,119.507,-140.259,-45.471
0.434,0.123,-1.020,179.016,-176.270,-58.838
0.599,0.117,-0.722,238.525,-160.522,-89.844
0.850,-0.038,-0.454,272.400,-174.133,-111.084
0.910,-0.243,-0.120,274.231,-213.135,-83.923
0.868,-0.246,0.195,269.165,-208.984,-62.439
0.874,-0.406,0.481,273.193,-236.694,-69.214
0.858,-0.590,0.837,226.746,-197.937,-38.696
0.717,-0.533,1.066,196.838,-161.438,-6.836
0.581,-0.576,1.289,157.837,-98.755,-9.521
0.602,-0.649,1.441,56.152,14.893,5.188
0.663,-0.534,1.220,-84.290,106.506,20.813
0.757,-0.512,0.855,-144.592,145.996,38.147
0.893,-0.455,0.688,-171.997,156.372,46.814
