aX,aY,aZ,gX,gY,gZ
0.879,-0.007,0.412,-0.732,-20.325,2.991
0.888,0.023,0.427,11.108,-27.527,1.465
0.919,0.044,0.447,9.888,-6.592,-25.513
0.931,0.021,0.431,3.784,5.615,-27.466
0.929,-0.005,0.439,15.259,14.526,-27.588
0.891,-0.003,0.393,31.738,34.790,-30.884
0.788,-0.062,0.366,60.791,67.078,-23.560
0.912,-0.090,0.353,46.936,68.542,-14.771
0.973,-0.065,0.357,36.804,62.744,-5.737
0.923,-0.081,0.265,26.306,35.156,-10.620
0.958,-0.071,0.226,22.400,-11.719,-16.907
0.929,-0.082,0.320,2.808,-46.265,-56.030
0.968,-0.136,0.311,-12.085,-49.622,-48.584
0.990,-0.150,0.326,-42.480,-73.608,-21.362
0.928,-0.148,0.358,-41.321,-79.407,-3.723
0.978,-0.146,0.441,-31.372,-75.623,-1.831
0.958,-0.173,0.651,-46.570,-54.138,-5.371
0.856,-0.040,0.612,-141.968,-9.277,-38.757
1.185,0.006,0.167,-81.787,11.230,-53.467
1.246,-0.149,0.650,-53.284,-114.075,-19.653
1.169,-0.094,0.872,-78.857,-181.946,38.513
1.123,-0.154,0.917,-29.663,-94.543,53.711
1.126,-0.030,0.974,-27.588,-20.813,37.231
1.109,-0.073,1.023,-70.068,10.681,49.072
1.045,0.070,1.177,-115.234,12.939,56.763
0.974,0.194,1.228,-98.022,57.678,34.912
0.737,0.264,1.005,-55.298,122.131,10.315
0.682,0.092,0.763,-70.740,156.250,27.344
0.600,0.065,0.603,-117.432,157.227,46.509
0.630,0.217,0.638,-116.882,169.006,40.466
0.484,0.098,0.283,-68.787,182.434,0.122
0.387,0.104,-0.020,-69.153,162.720,-22.278
0.444,0.168,-0.112,-90.027,159.119,-12.024
0.431,0.159,-0.219,-60.181,148.560,-52.246
0.375,0.127,-0.353,-18.188,122.131,-73.059
0.296,0.123,-0.548,22.583,81.970,-61.829
0.276,-0.070,-0.690,5.066,-1.099,-36.255
0.262,0.013,-0.580,6.775,-79.102,6.592
0.310,0.047,-0.450,48.096,-130.676,12.939
0.339,0.055,-0.337,75.806,-185.852,14.343
0.319,0.116,-0.090,68.604,-244.385,22.583
0.505,0.066,0.454,38.513,-237.732,25.146
0.564,0.017,0.596,70.313,-207.397,30.212
0.531,0.065,0.637,53.162,-199.951,26.306
0.595,0.004,0.877,59.387,-214.478,26.062
0.670,0.079,0.888,90.637,-222.168,6.958
0.546,0.067,0.998,98.022,-193.237,-17.212
0.691,0.035,1.269,34.851,-177.246,25.818
0.628,0.160,1.135,53.223,-135.559,10.498
0.615,0.061,1.275,43.518,-140.686,-0.854
0.607,0.092,1.595,47.607,-114.441,5.188
0.862,0.163,1.903,35.156,-47.119,20.630
1.058,0.380,2.056,-14.771,-16.418,38.147
1.005,0.428,1.943,-41.748,69.092,23.987
0.970,0.426,1.940,-78.064,143.921,17.944
0.852,0.248,1.861,-85.876,192.444,-0.244
0.724,0.291,1.629,-87.646,227.844,-27.893
0.447,0.135,1.116,-66.589,283.142,-61.157
0.354,0.085,0.766,-100.586,318.726,-43.823
0.309,0.088,0.516,-110.352,327.637,-27.649
0.344,0.113,0.413,-111.450,268.433,-21.423
0.315,-0.003,0.233,-111.206,210.815,-8.484
0.245,-0.050,-0.116,-92.957,189.026,-36.194
0.266,-0.083,-0.302,-75.745,214.600,-41.870
0.330,-0.046,-0.424,-40.588,188.477,-50.476
0.355,-0.078,-0.542,-12.329,112.244,-53.528
0.384,-0.079,-0.638,18.188,46.387,-46.997
0.362,-0.103,-0.715,18.555,-23.926,-33.264
0.373,-0.203,-0.725,9.216,-90.332,10.315
0.429,-0.056,-0.691,8.057,-148.193,48.706
0.496,0.074,-0.522,38.269,-172.241,51.819
0.455,-0.008,-0.321,62.500,-212.097,50.903
0.438,0.008,-0.013,71.411,-238.708,55.176
0.416,0.146,0.226,84.351,-272.278,64.941
0.625,0.282,0.698,74.158,-260.498,85.388
0.947,0.458,1.086,24.170,-245.911,97.839
0.603,0.239,0.843,89.905,-236.694,8.972
0.578,0.186,1.023,87.891,-222.839,15.381
0.920,0.416,1.516,28.320,-168.457,49.011
0.835,0.367,1.362,51.331,-102.295,15.686
0.748,0.229,1.404,32.715,-64.697,-0.549
1.038,0.493,1.732,-6.226,-21.423,15.991
1.052,0.637,1.647,-2.319,47.302,-6.653
0.933,0.453,1.546,-20.569,126.953,-22.278
1.005,0.429,1.547,-51.086,184.631,-29.053
0.825,0.284,1.149,-74.097,274.353,-58.289
0.717,0.095,0.862,-71.899,283.630,-82.214
0.779,0.102,0.859,-55.664,276.733,-66.956
0.770,0.255,0.700,-59.204,306.458,-58.594
0.461,-0.041,0.140,-64.331,259.216,-22.095
0.495,0.076,-0.046,-29.297,188.354,-11.658
0.413,0.097,-0.226,3.540,193.481,-35.278
0.387,0.030,-0.426,-12.939,194.946,-30.029
0.304,0.031,-0.664,-18.738,152.954,-26.367
0.278,0.011,-0.804,-2.319,82.581,-24.292
0.300,0.005,-0.792,12.451,4.395,-22.827
0.336,-0.068,-0.670,25.757,-56.641,-19.958
0.355,-0.085,-0.621,32.288,-103.027,-1.038
0.401,-0.064,-0.602,28.564,-108.154,7.996
0.406,0.049,-0.362,22.156,-202.270,26.245
0.487,0.008,-0.187,51.880,-241.211,20.203
0.526,0.091,-0.041,60.730,-262.207,14.282
0.652,0.094,0.390,63.293,-271.362,2.075
0.847,0.167,0.693,76.843,-236.450,-7.507
0.991,0.306,0.863,85.510,-242.676,-12.695
1.086,0.111,1.153,141.052,-168.518,-95.215
1.060,-0.115,0.950,32.227,-117.676,-69.397
0.933,0.007,0.830,-31.250,-76.294,-46.265
0.911,0.100,0.898,-43.152,-46.082,-18.066
0.800,-0.155,0.804,-24.536,-38.269,-7.019
0.646,-0.090,0.631,25.024,-80.383,-13.062
0.800,-0.187,1.154,41.199,-118.958,-17.761
0.807,-0.172,1.077,18.005,-96.313,2.075
0.664,-0.115,0.802,35.339,-53.040,-8.606
0.411,-0.152,0.805,-25.940,-112.732,23.621
0.598,-0.042,0.848,-91.553,-220.032,-27.283
0.612,0.131,1.113,-39.246,-148.499,31.128
0.377,-0.053,1.160,5.310,-100.769,3.479
0.069,-0.199,1.701,-59.082,128.601,-2.686
0.510,0.020,0.612,-35.034,175.415,14.893
0.641,-0.043,0.440,-26.489,-43.152,16.907
0.426,0.063,1.238,-15.320,-26.123,20.813
0.298,0.216,0.925,-9.766,27.344,11.475
0.389,0.147,0.838,12.878,21.240,-26.306
0.471,-0.051,0.736,-3.235,-6.775,-1.465

0.509,0.078,0.844,-0.854,7.324,-3.113
0.542,0.056,0.853,1.526,1.160,-1.282
0.485,0.102,0.893,-1.465,-4.822,4.822
0.462,0.097,0.910,-2.808,3.174,-1.770
0.539,0.063,0.806,-3.662,5.493,-4.944
0.522,0.057,0.838,-1.221,-5.066,0.610
0.496,0.103,0.882,2.136,-1.099,4.150
0.506,0.096,0.892,1.465,3.845,1.770
0.529,0.072,0.871,5.005,11.047,2.686
0.505,0.110,0.884,10.132,11.108,6.836
0.490,0.111,0.916,9.766,0.366,-2.014
0.549,0.014,0.890,16.357,5.432,-5.737
0.560,0.028,0.825,18.860,17.944,4.761
0.582,0.036,0.777,14.893,19.653,6.897
0.547,0.033,0.774,13.062,4.089,13.794
0.511,0.046,0.889,10.315,4.211,11.536
0.537,0.040,0.808,6.775,-4.761,19.958
0.500,0.059,0.880,11.963,-1.282,26.489
0.470,0.107,0.899,15.320,13.428,21.240
0.504,0.097,0.797,16.541,7.935,11.292
0.462,0.110,0.862,28.015,-0.244,5.554
0.504,0.086,0.953,35.645,19.958,-5.615
0.566,0.039,0.876,28.442,16.479,-10.559
0.554,-0.003,0.797,26.855,7.141,-10.498
0.544,-0.011,0.944,43.640,5.859,-14.771
0.616,-0.597,0.706,54.382,23.682,6.226
0.604,0.110,1.131,-17.212,-12.146,50.232
0.656,-0.109,0.876,-18.677,48.035,52.185
0.668,0.288,0.750,-55.908,33.081,37.598
0.547,-0.119,0.701,-36.926,-15.869,4.150
0.538,0.173,0.919,2.563,-23.254,32.776
0.665,0.144,0.831,20.996,-9.277,11.047
0.562,0.165,0.761,8.362,1.343,10.742
0.610,0.033,0.881,-41.016,0.854,24.109
0.848,0.074,1.028,-39.124,-0.061,50.415
0.906,0.240,1.196,53.467,26.550,-57.129
1.003,0.234,1.845,-48.340,52.551,-28.137
0.899,0.322,1.593,-131.531,179.199,10.986
0.817,0.083,1.321,-76.233,208.923,1.343
0.798,0.125,1.429,10.742,226.929,-32.898
0.673,0.094,1.287,-34.241,289.490,-31.189
0.461,-0.011,0.573,-67.871,279.358,-7.568
0.428,-0.025,0.148,-80.688,235.168,4.639
0.382,0.165,0.073,-57.434,208.740,-6.165
0.310,0.032,-0.212,-48.279,226.440,-22.644
0.193,-0.072,-0.697,-64.392,186.523,-45.166
0.303,0.003,-0.943,-96.863,125.610,-52.917
0.210,-0.091,-1.040,-46.326,44.312,-28.381
0.177,0.088,-0.926,-7.996,-83.740,-19.775
0.297,-0.143,-0.960,74.829,-163.269,-4.211
0.326,-0.042,-0.571,41.687,-230.286,16.602
0.363,0.074,-0.137,2.808,-264.038,41.748
0.394,0.083,0.350,-13.123,-302.063,66.467
0.475,0.041,0.519,16.663,-292.969,70.984
0.460,0.141,0.483,43.091,-270.142,60.181
0.457,0.132,0.619,19.470,-256.409,51.331
0.528,0.080,0.946,48.157,-280.396,43.396
0.506,0.227,1.170,76.904,-230.103,1.465
0.485,0.187,1.387,119.141,-201.172,25.269
0.430,-0.020,1.010,128.479,-165.649,21.667
0.293,-0.078,1.390,12.817,-184.509,5.737
0.316,0.080,1.816,-13.123,-142.334,30.823
0.225,0.212,1.656,4.761,-87.219,43.213
0.354,0.025,1.420,29.480,-44.434,37.476
0.271,0.350,2.530,-130.981,-32.471,22.095
0.392,0.533,2.328,8.240,106.262,-4.883
0.385,0.316,1.973,-51.331,166.077,-66.956
0.239,0.278,1.845,-66.772,304.138,-69.275
0.254,0.174,1.488,-44.617,339.966,-63.477
0.340,0.261,1.371,-41.260,401.978,-74.768
0.260,0.127,1.010,-54.932,467.346,-51.575
0.309,0.020,0.433,-69.458,395.264,-30.396
0.391,-0.012,0.214,-89.844,292.114,-7.507
0.375,-0.090,-0.036,-103.882,135.559,-2.014
0.260,-0.154,-0.268,-62.439,157.837,-31.067
0.262,-0.089,-0.743,-45.166,194.397,-23.926
0.406,-0.066,-0.774,-44.861,172.119,-16.846
0.439,-0.063,-0.810,-16.235,112.183,-25.940
0.519,-0.018,-0.606,11.353,25.879,-17.639
0.545,-0.035,-0.571,27.832,-39.551,-13.428
0.544,-0.047,-0.641,31.250,-111.816,5.066
0.531,-0.005,-0.626,25.452,-161.072,31.738
0.556,0.036,-0.351,44.067,-177.734,43.274
0.515,0.008,-0.252,74.707,-208.679,35.095
0.381,-0.038,-0.105,72.266,-262.573,45.654
0.287,0.043,0.196,56.519,-311.035,74.768
0.258,0.105,0.669,95.581,-275.452,74.219
0.400,0.099,1.020,79.346,-319.092,81.665
0.441,0.098,1.564,107.178,-294.067,34.485
1.038,0.308,1.979,68.054,-210.632,61.340
0.672,0.418,1.442,93.323,-105.591,28.625
0.559,0.263,1.140,41.138,-64.392,-5.798
0.577,0.235,1.116,5.615,-50.171,-18.860
0.480,0.214,1.167,40.588,30.640,-29.236
0.609,0.106,1.100,23.987,33.752,-15.320
0.633,0.150,1.128,10.132,7.629,1.648
0.520,0.149,0.981,1.587,2.930,-12.329
0.457,0.088,0.912,-3.601,17.212,-28.564
0.543,0.058,0.984,-1.160,23.132,-8.850
0.570,0.087,1.013,5.920,39.368,-4.089
0.492,0.063,0.864,-6.470,19.470,-8.789
0.481,0.047,0.815,-6.470,6.897,-5.066
0.517,0.034,0.827,6.714,5.554,-6.653
0.543,0.070,0.865,7.141,18.982,-4.150
0.472,0.033,0.795,10.742,19.104,-6.714
0.509,0.036,0.789,21.790,34.241,-5.798
0.593,0.045,0.836,16.846,21.790,-7.324
0.590,0.064,0.842,7.263,12.390,-2.930
0.553,0.054,0.818,0.244,9.216,-3.906
0.581,0.011,0.827,11.597,22.156,0.549
0.604,0.002,0.821,10.010,23.376,0.244
0.596,-0.010,0.801,4.211,13.428,3.113
0.617,0.032,0.814,1.526,2.869,2.808
0.636,0.028,0.838,3.967,9.888,3.540
0.593,0.001,0.777,2.869,8.606,0.366
0.573,0.005,0.769,1.465,0.305,1.892
0.621,0.018,0.805,4.700,-7.874,-1.465
0.620,0.029,0.808,3.601,-4.028,-2.136
0.602,0.011,0.799,0.793,0.427,1.526
0.611,0.015,0.819,-0.427,0.244,3.479
0.621,0.008,0.825,0.061,-2.625,1.587
0.613,0.011,0.813,-0.061,1.038,2.502
0.608,-0.005,0.802,2.747,3.906,1.160
0.607,0.006,0.802,0.916,0.732,3.601
0.609,0.026,0.805,-1.160,-3.784,6.531

0.326,0.094,0.758,73.303,-45.959,-73.914
0.557,-0.058,0.783,68.542,-59.692,-91.919
0.659,-0.041,0.868,36.255,-31.311,-61.768
0.482,-0.040,0.801,19.470,-15.930,-23.560
0.516,-0.021,0.873,14.465,-45.654,-34.729
0.528,-0.004,0.989,-5.798,-30.334,-32.471
0.438,-0.069,0.889,-17.700,-14.954,-32.471
0.474,-0.075,0.892,-16.541,-2.930,-26.733
0.469,-0.027,0.896,-0.549,-23.621,-29.907
0.438,-0.058,0.872,-4.272,-32.715,-22.827
0.434,-0.071,0.872,-16.724,-36.804,-26.978
0.521,-0.117,0.988,-13.367,-43.274,-32.410
0.573,-0.071,1.204,-28.809,-38.269,-15.808
0.620,0.048,1.486,-38.513,-23.193,13.245
0.606,0.108,1.531,-47.791,6.409,9.399
0.501,-0.004,1.458,-46.753,33.630,9.216
0.514,-0.027,1.525,-18.677,64.453,10.376
0.552,0.039,1.633,-26.123,138.428,11.841
0.464,0.047,1.349,-58.289,183.960,-3.174
0.456,0.033,1.056,-49.683,202.881,-0.305
0.577,0.143,1.062,-67.200,254.700,17.578
0.516,0.185,0.826,-61.218,317.566,4.028
0.570,0.094,0.499,-68.359,269.470,-10.986
0.399,0.057,0.227,-82.031,226.807,-3.113
0.312,-0.004,-0.150,-52.368,176.697,-5.493
0.291,-0.043,-0.578,-11.780,108.459,-3.235
0.277,0.138,-0.742,24.292,48.706,-1.770
0.241,0.099,-0.710,31.921,-8.728,3.418
0.235,0.054,-0.590,32.898,-61.401,10.559
0.171,0.057,-0.491,38.574,-195.007,-9.460
0.171,0.181,-0.078,46.082,-306.030,-24.841
0.177,0.234,0.372,32.227,-360.840,-14.404
0.213,0.022,0.811,17.944,-328.979,-5.615
0.265,-0.151,0.980,3.357,-283.325,15.320
0.138,0.082,0.963,58.594,-231.201,3.235
0.109,-0.043,1.138,61.890,-263.794,-4.150
0.318,-0.160,1.643,51.453,-232.910,-36.011
0.318,-0.004,1.653,40.222,-165.649,22.583
0.120,0.064,1.453,20.020,-96.436,12.573
0.041,-0.004,1.512,-3.906,-99.670,-1.648
0.065,-0.059,1.835,7.446,-91.125,8.240
0.359,0.102,2.315,-15.076,-30.640,44.067
0.162,0.297,2.141,-37.354,54.260,37.048
0.125,0.248,1.985,-39.917,109.680,-2.319
0.284,0.144,2.158,-60.059,195.984,6.958
0.115,0.136,1.862,-60.669,267.151,-18.372
0.052,0.004,1.292,-38.940,275.024,-48.462
0.114,-0.055,1.124,-64.453,317.078,-31.372
0.340,0.002,1.078,-81.238,358.826,-21.790
0.214,0.141,0.640,-75.928,312.012,-9.766
0.312,0.132,0.257,-72.388,256.165,-3.296
0.293,0.167,-0.034,-44.800,223.328,-7.690
0.294,0.080,-0.300,-34.058,179.810,-12.573
0.308,0.034,-0.605,-26.550,132.324,-23.682
0.287,0.072,-0.716,-16.296,74.097,-19.836
0.317,0.047,-0.552,7.141,-24.719,-19.836
0.288,0.033,-0.361,31.250,-101.440,-10.986
0.253,0.005,-0.283,43.823,-188.049,12.390
0.249,0.145,-0.017,57.068,-243.835,8.118
0.224,0.029,0.247,86.731,-273.376,-17.639
0.176,-0.055,0.467,78.918,-291.382,-13.550
0.085,-0.001,0.691,39.612,-292.542,13.428
0.236,0.008,1.082,29.663,-277.649,6.897
0.307,-0.048,1.278,38.269,-269.714,34.363
0.157,-0.054,1.504,82.764,-229.309,-42.908
0.305,-0.134,1.620,83.984,-197.571,-35.217
0.265,-0.038,1.668,34.180,-132.019,3.723
0.163,-0.023,1.690,21.362,-90.759,11.108
0.242,-0.035,1.843,13.916,-62.683,-0.061
0.247,0.009,2.001,9.155,-18.555,14.587
0.301,0.041,2.146,-10.559,42.969,28.992
0.424,0.119,2.235,-23.010,114.319,34.912
0.215,0.110,1.861,-29.053,177.307,-7.812
0.295,-0.041,1.844,-49.866,257.751,2.380
0.210,-0.040,1.542,-66.467,310.730,-7.446
0.216,-0.035,1.221,-103.638,309.082,-13.306
0.286,-0.030,1.004,-125.244,321.045,7.202
0.201,0.007,0.541,-108.643,317.627,18.066
0.308,0.031,0.281,-114.502,234.802,27.283
0.326,0.023,0.089,-100.220,157.227,24.109
0.332,0.019,-0.044,-63.843,144.348,0.427
0.408,-0.002,-0.170,-31.067,156.616,-10.498
0.394,0.102,-0.291,3.052,151.611,-25.574
0.336,0.034,-0.480,6.409,103.699,-26.367
0.343,0.003,-0.530,9.583,23.987,-17.944
0.399,-0.036,-0.392,29.663,-71.167,-7.568
0.501,0.070,-0.170,38.330,-122.559,12.024
0.533,0.159,0.032,30.029,-164.673,21.851
0.537,0.136,0.169,43.030,-181.152,23.193
0.468,0.070,0.213,75.989,-199.219,11.963
0.405,0.248,0.414,74.707,-229.675,9.521
0.441,0.061,0.745,58.350,-254.822,13.306
0.452,-0.039,1.024,76.294,-306.763,37.231
0.467,0.068,1.322,129.089,-254.822,4.822
0.576,0.100,1.525,136.169,-198.547,24.780
0.439,0.174,1.406,101.746,-123.047,1.160
0.390,0.041,1.254,62.866,-90.332,-17.944
0.415,-0.100,1.312,27.039,-69.946,-21.912
0.545,-0.083,1.570,1.282,-27.588,15.625
0.356,0.054,1.398,32.776,12.146,-11.292
0.303,0.023,1.246,27.649,27.283,-36.255
0.370,-0.042,1.191,1.038,25.085,-16.602
0.369,-0.032,1.136,-0.977,53.955,-13.611
0.397,-0.036,1.053,-9.277,39.063,-23.499
0.360,-0.079,0.959,-9.155,27.527,-15.503
0.345,-0.108,0.929,-13.550,24.170,-9.277
0.334,-0.097,0.870,-13.916,15.991,-6.042
0.346,-0.103,0.874,-9.827,4.639,-2.197
0.387,-0.093,0.958,-8.850,3.052,1.648
0.368,-0.079,0.931,-6.165,10.254,3.296
0.344,-0.061,0.887,-7.996,-2.502,-0.366
0.348,-0.062,0.901,-4.517,-10.315,3.174
0.385,-0.060,0.956,-1.343,-5.798,6.287
0.444,-0.035,1.056,-3.479,9.399,10.376
0.361,-0.017,0.964,-7.019,22.522,8.118
0.349,-0.024,0.882,-7.996,13.733,-0.183
0.345,-0.041,0.830,0.000,0.610,1.831
0.333,-0.039,0.835,4.883,-16.418,5.798
0.323,-0.001,0.872,0.977,-24.780,4.639
0.362,-0.022,0.973,-6.409,-33.203,0.793
0.380,-0.024,1.006,-4.578,-29.358,0.549
0.359,-0.002,0.981,2.441,-21.057,0.732
0.336,-0.001,0.950,0.671,-11.963,-0.488
0.312,-0.003,0.928,-1.587,-9.155,-3.357
0.310,-0.027,0.935,-3.479,-15.015,-5.554

0.273,-0.049,0.961,-1.465,-4.578,2.930
0.273,-0.036,0.969,1.465,-3.418,0.305
0.277,-0.031,0.966,1.099,-2.136,-0.061
0.265,-0.032,0.964,0.366,-2.441,-1.526
0.268,-0.040,0.980,0.427,-4.089,-0.671
0.281,-0.031,1.013,0.671,-2.441,-0.244
0.269,-0.035,0.991,-0.549,1.709,-1.648
0.266,-0.034,0.970,0.427,1.770,-1.160
0.260,-0.036,0.960,0.854,0.671,-1.160
0.251,-0.040,0.950,-1.343,-2.197,-0.488
0.257,-0.043,0.958,0.732,-5.432,-3.174
0.265,-0.044,0.974,0.549,-5.615,-0.793
0.262,-0.043,0.974,-1.099,-3.906,-0.122
0.257,-0.044,0.972,-0.244,-4.272,-0.183
0.253,-0.052,0.965,1.160,-4.517,-1.160
0.250,-0.056,0.956,1.404,-5.676,-0.793
0.247,-0.042,0.937,1.892,-6.958,0.000
0.236,-0.041,0.924,2.319,-10.498,-1.282
0.227,-0.037,0.933,2.930,-15.747,-0.916
0.230,-0.049,0.946,5.127,-18.555,-3.113
0.211,-0.067,0.954,7.263,-21.240,-1.343
0.203,-0.086,0.955,11.536,-26.672,2.258
0.252,-0.082,1.075,7.080,-23.254,9.644
0.315,-0.063,1.210,-5.066,3.601,11.108
0.329,-0.074,1.254,-14.954,20.630,9.888
0.424,-0.016,1.440,-21.790,30.640,19.714
0.493,0.094,1.574,-18.677,62.012,17.456
0.387,0.073,1.404,-41.260,67.444,12.573
0.507,0.039,1.575,-58.655,73.425,17.639
0.514,0.101,1.612,-45.349,113.403,-6.958
0.473,0.056,1.454,-52.490,152.161,-19.958
0.411,0.107,1.323,-63.110,174.927,-19.897
0.460,0.095,1.227,-74.951,190.491,-20.447
0.385,0.103,0.984,-78.552,208.374,-16.785
0.416,0.107,0.724,-70.557,207.031,-25.757
0.413,0.081,0.527,-63.721,186.279,-32.227
0.388,0.059,0.305,-65.491,191.956,-27.100
0.407,0.087,0.167,-47.607,194.153,-26.550
0.423,0.062,0.003,-24.475,190.857,-46.570
0.453,0.031,-0.072,-26.001,177.490,-38.330
0.472,0.030,-0.197,-21.851,152.222,-27.771
0.562,0.008,-0.145,-14.465,91.125,-18.127
0.550,-0.042,-0.159,0.916,67.444,-7.935
0.435,-0.171,-0.365,7.141,36.560,-4.883
0.390,-0.149,-0.545,9.888,-24.963,17.944
0.451,-0.019,-0.439,13.611,-116.943,32.837
0.475,-0.018,-0.196,27.832,-164.795,29.358
0.393,-0.024,-0.078,43.213,-179.626,31.128
0.358,0.031,-0.010,35.767,-222.046,44.800
0.254,0.111,0.210,41.626,-262.695,54.749
0.213,0.080,0.393,51.636,-297.424,41.565
0.236,0.082,0.775,53.955,-292.603,48.889
0.166,0.098,1.041,74.280,-272.034,45.288
0.227,-0.008,1.199,105.286,-284.058,39.673
-0.071,-0.073,1.229,134.583,-286.926,8.362
0.288,-0.023,1.921,77.637,-251.587,40.588
0.261,0.205,1.798,103.149,-86.426,47.241
0.159,0.260,1.768,66.162,-52.551,-20.813
-0.073,0.120,1.718,1.648,-120.117,-12.939
0.296,-0.142,2.380,-12.024,-111.389,24.231
0.296,0.148,2.542,-24.475,34.546,49.988
0.003,0.207,1.836,10.498,154.541,-36.255
0.062,-0.002,1.508,-22.583,120.483,-27.588
0.146,-0.037,1.597,-52.795,125.488,12.939
0.231,-0.040,1.577,-58.411,197.083,-14.099
0.187,-0.006,1.426,-69.946,257.629,-33.264
0.229,-0.045,1.238,-77.332,308.838,-23.743
0.182,-0.052,0.970,-83.008,338.196,-8.057
0.256,-0.124,0.698,-96.008,340.881,8.423
0.226,-0.031,0.441,-85.510,311.523,17.151
0.211,-0.010,-0.000,-71.289,219.543,14.893
0.309,0.043,-0.088,-82.031,153.381,22.766
0.379,0.094,-0.309,-57.861,143.127,8.667
0.484,0.110,-0.291,-38.574,129.333,-11.658
0.532,0.098,-0.280,-8.972,101.746,-18.982
0.573,0.088,-0.360,12.939,53.955,-23.621
0.597,0.105,-0.335,15.991,-6.226,-10.254
0.621,0.134,-0.337,21.667,-46.509,-11.536
0.571,0.073,-0.339,20.508,-97.534,-2.380
0.566,0.077,-0.182,18.005,-136.414,10.071
0.501,0.109,-0.023,29.541,-164.307,11.963
0.475,-0.011,0.085,49.561,-197.205,17.883
0.349,0.069,0.159,75.073,-228.333,32.227
0.265,0.240,0.450,61.340,-245.422,30.090
0.435,0.009,0.771,81.909,-253.906,46.448
0.409,0.078,1.104,124.268,-259.644,-36.072
0.285,0.048,1.047,152.893,-245.544,-48.218
0.460,0.004,1.548,107.422,-240.845,-20.264
0.638,0.031,1.726,68.359,-156.494,-26.001
0.445,-0.040,1.554,58.899,-119.141,-39.551
0.493,-0.123,1.492,39.795,-85.022,-36.743
0.375,-0.157,1.462,26.794,-51.086,-30.396
0.504,-0.161,1.500,28.381,-12.390,-13.855
0.392,-0.134,1.344,23.376,-5.188,-2.686
0.357,-0.131,1.277,10.864,2.686,-3.601
0.335,-0.092,1.247,0.671,16.602,5.737
0.286,-0.093,1.135,-1.831,27.588,5.432
0.255,-0.132,1.038,-13.123,28.320,6.897
0.237,-0.150,0.987,-14.343,28.503,8.362
0.254,-0.131,0.954,-13.245,31.677,9.827
0.254,-0.097,0.923,-8.423,42.236,6.409
0.249,-0.097,0.897,-13.550,44.189,1.892
0.224,-0.086,0.834,-14.221,32.227,0.549
0.246,-0.093,0.805,-6.470,17.212,-0.488
0.261,-0.101,0.805,0.610,11.292,-0.549
0.268,-0.099,0.799,-1.709,3.906,-2.808
0.320,-0.117,0.854,-3.906,-0.244,-0.183
0.349,-0.066,0.885,2.197,7.507,3.418
0.296,-0.051,0.833,0.916,4.150,1.282
0.327,-0.039,0.870,2.380,-6.470,0.610
0.385,-0.051,0.954,-1.160,-7.446,2.869
0.387,-0.041,0.992,1.099,1.953,-1.221
0.352,-0.061,0.954,-0.916,2.625,-8.301
0.343,-0.079,0.937,1.526,-1.038,-7.141
0.364,-0.081,0.955,-1.160,-6.714,-4.700
0.354,-0.094,0.983,-3.357,-6.287,-3.845
0.358,-0.114,0.986,-5.127,-2.380,-6.348
0.339,-0.104,0.953,0.061,-1.648,-2.258
0.332,-0.082,0.919,5.066,-3.357,-1.221
0.354,-0.075,0.926,0.854,-5.127,-0.366
0.342,-0.076,0.932,-4.700,-12.756,-1.831
0.331,-0.080,0.940,-4.883,-15.747,-1.282
0.291,-0.078,0.931,-5.249,-17.944,-2.808
0.288,-0.086,0.950,-3.540,-5.737,-0.793
0.321,-0.072,0.985,-1.343,-1.404,0.916

0.262,-0.083,0.950,0.427,-5.188,-0.977
0.244,-0.088,0.934,-0.183,-9.277,0.427
0.256,-0.079,0.967,0.305,-8.057,0.488
0.260,-0.072,0.970,0.549,-6.287,-0.671
0.250,-0.072,0.969,1.282,-6.653,-1.099
0.259,-0.081,1.001,-1.526,-6.714,-0.244
0.264,-0.089,1.012,-3.113,-5.066,1.465
0.285,-0.117,1.028,-6.226,-4.089,1.892
0.322,-0.153,1.090,-14.954,-5.127,11.597
0.410,-0.082,1.288,-16.846,9.766,23.376
0.622,0.054,1.720,-35.400,59.021,36.255
0.531,0.135,1.775,-51.147,90.088,29.358
0.494,0.023,1.751,-81.543,118.408,12.939
0.495,0.093,1.901,-90.210,194.214,18.066
0.358,0.129,1.575,-84.778,280.212,-12.939
0.244,0.038,1.090,-102.600,297.607,-29.175
0.257,0.033,0.824,-93.201,281.738,-38.635
0.342,0.031,0.758,-84.045,284.241,-27.771
0.297,0.016,0.477,-72.205,295.227,-29.053
0.196,-0.069,0.021,-53.040,265.930,-25.696
0.216,-0.049,-0.410,-50.964,268.250,-10.071
0.191,0.009,-0.762,-30.457,240.234,-10.925
0.206,0.119,-0.901,4.700,172.607,-12.451
0.212,0.085,-0.944,19.897,84.961,-23.437
0.238,-0.082,-0.935,44.678,-19.958,-31.250
0.308,-0.064,-0.770,33.997,-126.648,-3.906
0.359,-0.004,-0.569,31.921,-214.844,27.100
0.382,0.045,-0.247,57.800,-259.399,32.898
0.317,0.020,-0.006,75.256,-308.960,13.550
0.234,-0.031,0.307,62.439,-354.004,29.358
0.271,0.034,0.676,55.176,-361.389,32.654
0.310,0.091,0.969,85.815,-344.971,87.036
0.259,-0.082,1.501,111.572,-290.161,-8.789
0.755,0.014,1.828,105.713,-264.038,-3.418
0.462,0.214,1.467,99.670,-157.410,-6.897
0.230,0.101,1.290,32.715,-133.423,-11.353
0.182,0.021,1.278,47.241,-120.483,-5.737
0.081,-0.115,1.414,47.363,-132.690,-24.841
0.470,-0.173,1.946,30.273,-75.989,-1.648
0.647,0.058,2.222,-8.667,-43.884,63.110
0.383,0.294,2.262,-57.068,52.856,48.889
0.238,0.135,1.920,-67.444,156.006,-30.029
0.265,-0.004,1.661,-58.899,217.041,-28.076
0.298,-0.021,1.577,-74.158,214.600,4.944
0.264,-0.065,1.342,-85.571,224.365,-15.015
0.281,0.004,1.069,-58.289,275.757,-49.500
0.374,0.083,0.847,-63.477,330.749,-38.879
0.339,0.027,0.519,-96.619,314.453,-13.367
0.443,-0.051,0.317,-106.506,268.982,7.507
0.476,0.089,0.230,-61.462,202.270,-15.320
0.299,0.060,-0.224,-47.791,160.156,-39.124
0.446,0.017,-0.288,-58.777,161.316,-1.953
0.448,0.047,-0.415,-23.865,159.729,-4.333
0.448,0.038,-0.498,4.150,113.586,-23.132
0.483,0.036,-0.532,-4.395,45.837,-11.230
0.492,0.019,-0.497,7.202,-27.893,-1.282
0.533,-0.001,-0.448,26.001,-72.388,5.371
0.558,0.049,-0.389,31.677,-122.803,19.897
0.463,0.090,-0.363,40.466,-205.627,14.343
0.432,-0.029,-0.142,58.228,-276.306,8.789
0.395,-0.008,0.155,48.279,-288.025,50.171
0.511,0.165,0.601,41.748,-246.033,60.059
0.395,0.107,0.563,79.407,-232.788,20.874
0.312,0.074,0.802,81.421,-307.922,18.372
0.567,0.139,1.462,91.431,-298.279,-25.757
0.387,0.187,1.295,131.836,-233.704,-9.094
0.114,0.036,1.205,83.252,-202.393,-3.052
0.181,-0.190,1.432,23.926,-206.970,-7.690
0.452,-0.007,1.781,1.953,-177.856,27.527
0.199,0.083,1.717,45.105,-107.178,27.039
0.292,0.134,1.745,29.480,-53.711,5.493
0.287,0.141,1.745,2.197,-9.338,1.221
0.337,0.122,1.780,-11.230,55.420,25.330
0.276,0.193,1.682,-21.667,127.747,26.550
0.297,0.105,1.471,-35.278,166.077,-15.259
0.390,0.082,1.598,-71.350,238.892,-32.166
0.175,0.107,1.348,-78.064,286.804,-52.368
0.295,-0.033,1.191,-103.882,295.898,-54.077
0.315,-0.014,0.938,-93.262,382.690,-2.075
0.395,-0.041,0.578,-87.891,348.999,-22.705
0.520,-0.062,0.550,-89.783,316.650,-11.597
0.534,0.005,0.242,-60.608,263.672,-13.611
0.506,-0.024,-0.129,-66.223,160.095,3.174
0.627,0.005,-0.080,-39.124,123.718,9.277
0.571,0.071,-0.257,-32.715,92.041,-1.831
0.638,0.081,-0.307,-35.767,96.985,5.249
0.687,0.124,-0.295,-13.184,99.487,2.319
0.684,0.056,-0.424,-0.122,70.557,3.662
0.710,0.139,-0.403,-3.723,31.555,13.489
0.733,0.139,-0.373,10.803,-9.216,2.502
0.661,0.009,-0.553,15.564,-73.120,-1.770
0.691,0.087,-0.434,27.161,-99.060,4.272
0.677,0.137,-0.352,26.550,-112.488,13.611
0.616,0.088,-0.299,18.860,-137.085,19.958
0.548,-0.006,-0.402,62.378,-173.584,9.644
0.549,0.266,0.121,42.603,-237.366,36.194
0.663,0.235,0.468,46.509,-170.105,39.490
0.488,0.104,0.237,89.722,-199.768,2.380
0.413,0.114,0.473,75.928,-273.193,55.054
0.527,0.145,1.150,60.486,-331.482,21.973
0.484,0.214,1.117,124.939,-250.671,2.930
0.332,0.032,1.223,109.192,-206.726,-14.099
0.657,0.092,1.668,48.889,-174.133,2.502
0.522,0.143,1.503,38.940,-117.371,8.850
0.363,0.099,1.277,51.697,-80.078,-22.400
0.327,0.027,1.179,50.537,-73.914,-28.992
0.356,-0.022,1.240,40.283,-61.646,-15.564
0.436,-0.015,1.314,11.108,-25.818,-5.005
0.352,0.038,1.209,11.658,16.968,-7.751
0.251,0.010,1.026,8.423,12.512,-12.146
0.265,0.016,1.015,4.639,9.583,-2.808
0.300,-0.013,1.030,-2.075,16.479,-1.038
0.296,-0.049,1.001,-4.028,21.423,-1.709
0.277,-0.058,0.953,-1.587,20.508,-2.686
0.257,-0.043,0.924,6.287,18.921,-7.324
0.266,-0.045,0.901,9.949,14.404,-6.165
0.304,-0.044,0.943,5.554,6.531,-2.136
0.320,-0.027,0.965,2.502,2.197,-0.916
0.299,-0.037,0.942,0.671,0.305,-3.052
0.309,-0.042,0.947,3.540,-0.793,-5.249
0.323,-0.040,0.967,4.211,-1.770,-5.371
0.317,-0.037,0.982,2.380,-0.610,-6.042
0.313,-0.056,0.967,-1.282,-0.549,-5.554
0.301,-0.047,0.953,1.709,-2.991,-5.554
0.313,-0.053,0.952,0.122,-8.850,-6.531

0.243,-0.070,0.967,0.916,-4.028,-1.953
0.235,-0.069,0.960,1.648,-4.395,-1.221
0.232,-0.064,0.969,0.610,-5.981,-0.427
0.244,-0.068,0.993,0.244,-5.249,0.122
0.242,-0.063,0.995,2.014,-1.221,0.610
0.226,-0.063,0.978,1.892,-1.343,-1.770
0.229,-0.065,0.985,0.732,-4.028,0.671
0.225,-0.061,0.991,2.319,-2.502,-0.488
0.220,-0.062,0.981,1.282,-3.906,-1.343
0.223,-0.056,0.973,1.038,-5.188,0.122
0.214,-0.053,0.969,0.732,-5.554,-0.793
0.218,-0.056,0.983,-0.305,-5.737,-1.099
0.215,-0.070,0.980,0.305,-5.676,-2.380
0.218,-0.071,0.990,1.160,-6.897,-1.221
0.253,-0.062,1.054,-0.183,0.854,-0.427
0.254,-0.085,1.085,-1.282,4.700,-3.723
0.300,-0.109,1.208,-3.113,15.015,-0.244
0.336,-0.041,1.220,3.052,30.762,4.272
0.333,-0.006,1.170,-8.911,24.719,1.953
0.414,-0.000,1.325,-23.437,26.062,8.911
0.504,-0.004,1.487,-27.222,50.842,14.160
0.456,0.007,1.380,-23.804,75.073,7.263
0.426,-0.031,1.246,-30.640,80.811,3.418
0.482,0.026,1.229,-30.884,92.773,6.775
0.517,0.075,1.210,-34.607,111.816,9.033
0.506,0.106,1.121,-46.143,129.883,-3.723
0.514,0.111,1.019,-63.904,136.963,-7.263
0.517,0.074,0.941,-69.763,153.809,-7.690
0.519,0.069,0.832,-67.139,168.762,-14.709
0.484,0.034,0.671,-61.890,176.208,-16.113
0.496,0.059,0.536,-47.607,186.035,-21.790
0.479,0.031,0.403,-51.941,187.073,-18.982
0.401,0.003,0.150,-51.575,179.993,-20.264
0.430,0.008,-0.001,-35.278,143.799,-21.179
0.544,0.036,-0.020,-21.606,113.586,-10.803
0.706,0.042,0.096,-7.263,97.595,0.610
0.642,0.106,-0.058,-1.099,69.397,-8.423
0.708,0.092,-0.089,-9.277,43.762,-1.953
0.785,0.082,-0.094,-5.676,19.348,0.977
0.884,0.044,-0.012,7.751,11.841,3.662
0.863,0.078,-0.036,18.982,1.038,0.854
0.849,0.095,-0.087,2.991,-25.513,7.141
0.884,0.076,-0.016,0.854,-41.931,11.292
0.840,0.049,0.043,11.963,-46.814,12.756
0.728,0.062,0.001,17.761,-53.406,13.855
0.642,0.045,-0.038,18.921,-72.510,17.883
0.564,0.138,-0.022,28.137,-104.370,22.400
0.569,0.170,0.132,33.875,-143.311,20.081
0.537,0.162,0.298,36.072,-167.053,26.550
0.497,0.168,0.406,39.368,-184.814,21.973
0.567,0.189,0.670,27.161,-188.721,28.687
0.662,0.222,0.969,30.334,-147.827,31.982
0.618,0.219,0.834,46.631,-121.460,11.353
0.458,0.174,0.897,39.734,-157.166,-13.794
0.581,0.059,1.073,58.838,-144.104,-24.536
0.619,0.159,1.206,42.236,-116.638,10.437
0.500,0.079,1.133,28.992,-90.271,-1.953
0.438,0.043,1.080,37.659,-89.416,-11.841
0.414,0.071,1.062,49.255,-103.882,-18.555
0.428,0.003,1.166,38.513,-101.501,-7.385
0.471,-0.007,1.320,21.423,-76.965,4.700
0.398,0.116,1.426,50.720,-12.268,-7.568
0.362,-0.016,1.151,16.846,-41.687,-13.855
0.343,0.035,1.183,16.785,-25.635,-2.258
0.371,0.008,1.199,7.874,-22.583,2.991
0.362,0.038,1.231,2.258,3.296,-4.333
0.283,0.008,1.126,-3.601,6.470,-4.333
0.261,-0.018,1.031,-2.014,5.127,-0.671
0.254,-0.038,1.001,0.122,4.761,-2.014
0.235,-0.030,0.960,1.099,7.019,-1.831
0.231,-0.022,0.949,0.366,2.441,-3.235
0.252,-0.024,0.975,0.610,1.221,-5.127
0.244,-0.014,0.977,0.183,5.737,-3.906
0.219,-0.035,0.927,-1.953,3.296,-5.981
0.234,-0.045,0.934,-3.967,-3.235,-3.540
0.249,-0.042,0.948,1.831,-6.042,-4.333
0.257,-0.044,0.954,1.770,-3.784,-4.395
0.235,-0.054,0.934,-0.916,-3.113,-1.465
0.260,-0.042,0.986,-0.244,-4.944,-0.977
0.252,-0.023,0.984,4.089,-0.671,-2.563
0.242,-0.035,0.963,-2.380,-2.319,-2.991
0.226,-0.031,0.964,-5.371,-10.864,-2.136
0.237,-0.036,0.982,-1.343,-13.123,-2.502
0.223,-0.036,1.004,-0.610,-11.536,-0.427
0.231,-0.029,1.024,-2.747,-6.348,1.099
0.229,-0.021,1.023,-2.502,-2.747,1.526
0.209,-0.008,0.985,-3.357,-4.089,-0.610
0.214,-0.006,0.983,-2.319,-7.996,-2.808
0.206,-0.012,0.990,-0.916,-3.418,-1.343
0.198,-0.015,0.990,-0.793,1.282,-1.160
0.198,-0.021,0.975,-0.916,-2.075,-1.160
0.205,-0.028,0.977,0.061,-2.258,1.709
0.208,-0.026,0.985,-0.732,0.427,1.221
0.196,-0.023,0.969,-0.244,-0.122,0.488
0.205,-0.015,0.982,1.038,-1.648,-0.061
0.204,-0.023,0.994,0.427,-1.465,-0.305
0.215,-0.030,1.007,-1.221,-1.404,-0.183
0.207,-0.021,0.997,0.549,0.916,0.305
0.208,-0.022,0.983,0.793,2.319,0.305
0.207,-0.021,0.973,0.793,0.854,0.061
0.198,-0.016,0.986,0.977,-1.038,0.977
0.207,-0.014,0.992,0.183,0.000,-1.038
0.199,-0.023,0.978,0.183,1.099,-1.221
0.199,-0.029,0.973,1.465,-0.610,-1.526
0.204,-0.017,0.988,1.099,-1.709,-0.732
0.203,-0.024,0.990,0.061,-0.916,-0.793
0.206,-0.013,0.990,1.831,0.916,-0.549
0.202,-0.018,0.983,0.366,-0.549,-1.953
0.208,-0.025,0.996,0.305,-1.343,-1.526
0.203,-0.035,0.990,0.488,0.244,-1.770
0.205,-0.034,0.984,0.000,-0.732,-1.099
0.206,-0.036,0.989,0.977,0.488,-0.671
0.205,-0.030,0.990,-0.122,-0.122,-1.221
0.206,-0.029,0.992,-0.244,-0.061,0.061
0.207,-0.027,0.993,0.732,-0.183,0.183
0.208,-0.017,0.998,-0.244,-0.671,0.061
0.200,-0.021,0.981,-1.160,-0.610,1.038
0.199,-0.026,0.984,-0.793,-0.366,-0.916
0.199,-0.024,0.980,-0.244,0.977,-1.526
0.194,-0.031,0.973,-0.610,-0.244,-0.977
0.205,-0.030,0.990,1.587,-1.709,0.122
0.205,-0.014,0.998,0.061,-0.977,-0.610
0.198,-0.028,0.991,-0.427,0.305,-0.549
0.202,-0.038,0.995,0.977,-1.038,-0.305
0.203,-0.028,0.991,1.709,-0.366,0.305

0.193,-0.034,0.967,0.061,-0.061,-0.305
0.191,-0.034,0.988,0.427,-1.343,0.183
0.191,-0.036,0.990,-0.366,-0.671,-0.244
0.191,-0.036,0.975,0.549,-1.343,-0.244
0.193,-0.035,0.988,0.366,-2.869,0.854
0.188,-0.041,0.974,0.061,-2.930,1.160
0.186,-0.029,0.980,1.709,-3.540,0.916
0.185,-0.029,0.983,1.160,-5.005,0.488
0.185,-0.031,0.971,1.526,-6.165,0.671
0.179,-0.025,0.960,3.113,-8.362,0.427
0.179,-0.028,0.972,2.014,-11.841,0.366
0.158,-0.040,0.960,5.981,-15.808,1.831
0.167,-0.043,1.013,4.761,-16.663,1.831
0.182,-0.040,1.057,2.808,-13.916,2.686
0.213,-0.078,1.126,-6.348,-11.230,7.935
0.341,-0.012,1.367,-17.944,9.094,19.043
0.295,0.099,1.378,-21.606,16.113,10.254
0.387,0.075,1.492,-40.649,25.879,14.587
0.383,0.043,1.582,-49.805,49.377,20.325
0.370,0.127,1.618,-37.476,82.031,13.245
0.338,0.187,1.480,-30.212,88.379,2.319
0.335,0.172,1.409,-45.776,97.168,-3.662
0.336,0.150,1.341,-57.434,125.977,-11.292
0.347,0.164,1.253,-76.904,158.081,-16.846
0.312,0.104,1.066,-85.388,201.721,-25.452
0.353,0.057,0.857,-80.261,229.431,-24.170
0.421,0.087,0.770,-68.909,219.360,-14.099
0.443,0.101,0.631,-61.401,198.791,-20.447
0.430,0.093,0.450,-69.641,193.115,-24.231
0.408,0.068,0.273,-64.453,189.270,-33.081
0.453,0.036,0.110,-41.626,179.016,-39.246
0.534,0.026,-0.008,-28.137,157.410,-28.442
0.651,0.100,-0.046,-29.724,129.456,-11.475
0.692,0.159,-0.088,-8.545,92.346,-8.301
0.748,0.113,-0.070,7.080,80.322,-18.433
0.747,0.096,-0.134,1.221,70.740,-7.324
0.777,0.110,-0.129,-8.057,50.781,8.545
0.808,0.172,-0.127,-0.244,34.607,10.071
0.811,0.204,-0.195,1.709,18.433,6.958
0.814,0.238,-0.200,-1.404,8.179,5.188
0.821,0.211,-0.183,5.066,6.714,-1.282
0.758,0.120,-0.219,8.545,-6.042,2.197
0.682,0.069,-0.269,21.179,-27.466,12.329
0.654,0.230,-0.216,22.217,-53.223,21.851
0.641,0.213,-0.180,18.799,-83.069,13.611
0.588,0.079,-0.200,34.180,-113.098,17.761
0.510,0.190,-0.122,41.199,-151.794,28.076
0.539,0.251,0.109,32.715,-174.072,34.912
0.584,0.160,0.372,29.602,-184.326,35.950
0.609,0.214,0.517,49.683,-185.852,35.645
0.590,0.177,0.538,48.706,-192.505,30.151
0.502,0.209,0.623,40.039,-183.777,31.311
0.540,0.241,0.861,44.861,-179.687,29.663
0.596,0.191,0.909,70.557,-163.208,15.381
0.405,0.230,0.872,64.636,-154.663,20.020
0.280,0.269,0.950,59.937,-184.448,22.522
0.394,0.095,1.042,77.087,-174.927,0.732
0.242,0.103,1.035,59.875,-159.790,16.907
0.150,0.154,1.118,59.631,-134.216,14.404
0.233,0.071,1.339,56.641,-128.235,8.301
0.155,0.052,1.407,39.917,-92.285,13.062
0.013,0.080,1.262,54.077,-72.449,8.728
0.103,0.078,1.285,47.913,-72.815,5.371
0.120,0.079,1.387,23.010,-50.964,-0.244
0.071,0.105,1.437,18.616,-29.114,1.343
0.075,0.160,1.432,24.109,-16.479,-3.174
0.028,0.074,1.222,15.076,-1.648,-10.193
0.000,0.025,1.072,4.578,-3.235,-11.414
0.031,-0.014,1.115,2.319,-14.221,-3.662
0.034,-0.021,1.145,5.493,-6.287,2.930
0.003,0.042,1.112,7.629,4.700,-0.427
-0.003,0.056,1.079,0.610,4.272,-2.258
-0.006,0.019,1.044,-1.160,3.845,-5.127
0.001,-0.010,1.035,-1.038,5.188,-7.324
0.010,-0.033,1.036,-1.038,10.132,-6.470
-0.015,-0.045,0.955,3.357,15.869,-6.042
-0.032,-0.034,0.922,-1.404,9.460,-4.211
0.010,-0.015,1.012,-5.432,0.488,-0.366
0.016,-0.033,1.018,-1.587,4.944,1.526
-0.021,0.001,0.987,-2.197,5.798,0.427
0.010,-0.012,0.963,-1.953,-1.587,5.920
0.022,-0.011,1.010,-11.414,-2.563,8.728
0.014,-0.025,1.057,-22.583,3.418,5.371
-0.008,0.029,1.003,-26.672,6.226,2.075
-0.007,0.054,0.997,-17.761,1.465,0.793
0.029,0.055,1.033,-3.235,1.221,4.944
0.005,0.021,1.004,0.305,3.357,4.456
0.014,0.015,0.981,-0.977,0.793,3.052
0.010,0.022,1.000,-9.521,1.099,7.141
0.015,0.034,0.996,-15.686,0.305,13.733
0.004,0.053,1.012,-17.151,-2.441,14.160
0.020,0.077,1.016,-15.625,-0.671,11.047
0.025,0.096,1.032,-13.855,2.991,6.348
0.016,0.086,1.037,-6.592,8.850,5.127
0.003,0.084,1.007,3.479,7.446,2.136
0.011,0.077,1.009,12.207,9.094,1.160
0.040,0.069,1.033,22.522,11.597,-3.662
0.038,0.070,1.011,27.039,13.367,-11.536
0.036,0.057,0.987,16.174,5.737,-13.428
0.038,0.045,0.982,6.042,5.005,-9.949
0.053,0.017,1.006,0.244,6.226,-4.639
0.056,0.027,1.025,1.709,15.137,-2.014
0.050,0.024,0.990,0.305,14.954,-3.235
0.066,0.038,1.024,-2.197,12.817,-0.732
0.075,0.029,1.018,-3.235,11.169,-2.625
0.073,0.042,1.010,-9.644,13.306,0.366
0.099,0.049,1.018,-7.812,17.639,4.700
0.083,0.057,0.968,-12.329,22.400,8.545
0.096,0.031,0.970,-8.789,8.423,9.033
0.115,0.055,0.992,-12.268,6.714,16.846
0.103,0.049,0.982,-20.264,7.874,22.095
0.115,0.084,0.998,-20.508,3.967,24.536
0.127,0.110,0.998,-14.465,3.052,15.625
0.118,0.108,1.034,-11.841,2.441,6.714
0.117,0.098,1.019,-18.677,-0.977,-0.671
0.109,0.153,1.024,-26.794,-4.822,-0.916
0.113,0.113,0.987,-26.917,1.648,-2.014
0.131,0.125,0.974,-23.376,0.793,-6.775
0.141,0.169,0.968,-23.254,5.005,-13.977
0.109,0.174,0.982,-23.987,2.686,-23.254
0.112,0.154,0.971,-14.099,8.728,-10.864
0.121,0.172,1.001,-7.996,10.437,4.944
0.146,0.197,0.982,-1.465,11.475,6.470
0.129,0.218,1.014,-0.366,3.784,-3.906
0.144,0.208,1.028,15.320,5.005,-7.690

0.063,-0.067,0.951,-35.217,-28.625,-23.071
0.075,0.011,1.005,-42.847,-38.696,-5.188
0.058,-0.004,0.976,-20.508,-37.231,-3.540
0.011,-0.015,0.957,-16.418,-39.551,-6.287
0.038,-0.007,0.952,1.160,-48.279,-14.343
-0.009,-0.079,1.074,-7.935,-45.410,-10.376
-0.048,-0.044,1.054,-6.775,-35.217,-5.127
-0.093,-0.063,0.950,5.005,-31.311,-5.554
-0.073,-0.062,0.936,22.766,-35.461,-7.751
-0.048,-0.115,1.099,27.466,-25.940,-1.953
-0.059,-0.059,1.101,27.893,-10.498,0.793
0.009,-0.046,1.360,7.141,-12.329,10.559
0.047,0.058,1.621,-20.874,17.578,17.395
0.059,0.056,1.698,-20.935,23.804,5.188
0.026,0.032,1.727,-40.833,43.457,2.197
0.011,0.045,1.827,-62.683,62.683,2.136
0.027,0.082,1.822,-63.171,95.703,-3.906
0.006,0.054,1.611,-59.204,125.732,-12.573
0.008,0.079,1.465,-75.623,157.227,-17.883
0.027,0.129,1.339,-99.731,198.242,-33.386
0.041,0.194,1.201,-108.398,226.318,-37.903
0.138,0.159,1.051,-101.685,215.515,-44.678
0.152,0.050,0.769,-107.483,212.158,-49.255
0.151,0.050,0.544,-86.426,202.454,-53.772
0.219,0.071,0.385,-75.378,206.543,-56.091
0.328,0.100,0.415,-63.782,217.224,-58.472
0.378,0.037,0.327,-64.697,219.177,-57.007
0.432,-0.014,0.149,-52.063,201.233,-48.523
0.537,0.053,0.008,-47.119,172.241,-35.522
0.661,0.097,0.005,-35.889,132.019,-22.034
0.665,0.102,-0.185,-15.869,111.511,-19.714
0.691,0.090,-0.284,-3.662,68.604,-6.531
0.744,0.122,-0.265,2.625,29.663,-3.662
0.771,0.068,-0.194,3.906,14.709,-3.113
0.745,0.052,-0.246,8.850,4.822,3.052
0.686,0.095,-0.249,11.047,-17.700,18.250
0.671,0.176,-0.177,9.827,-44.006,28.564
0.671,0.229,-0.125,17.822,-61.829,27.405
0.634,0.208,-0.096,18.738,-84.839,24.231
0.514,0.159,-0.120,25.452,-115.173,30.151
0.469,0.229,-0.035,37.842,-164.978,36.133
0.460,0.298,0.212,48.523,-203.552,47.974
0.456,0.145,0.368,73.853,-213.623,34.424
0.383,0.130,0.448,78.430,-215.332,38.147
0.371,0.259,0.697,53.833,-219.116,53.284
0.409,0.190,0.875,70.862,-192.566,38.635
0.276,0.206,0.824,76.965,-182.922,31.921
0.238,0.113,0.826,64.697,-190.186,31.372
0.099,0.087,0.918,53.467,-194.092,43.762
0.109,0.109,1.226,56.763,-204.102,43.579
0.109,0.126,1.355,86.060,-147.888,31.555
-0.068,0.204,1.279,71.777,-134.155,25.146
-0.036,0.108,1.304,61.951,-121.704,7.812
-0.062,0.002,1.358,54.749,-102.600,17.151
-0.093,0.107,1.561,59.937,-83.618,18.127
-0.133,0.072,1.469,65.002,-63.477,11.536
-0.171,0.041,1.306,47.180,-37.903,1.953
-0.175,0.034,1.342,11.108,-32.410,-7.385
-0.132,-0.017,1.350,7.874,-23.682,-1.770
-0.153,0.005,1.272,16.602,-3.235,-1.587
-0.171,0.015,1.214,13.123,-7.263,-2.197
-0.155,0.035,1.227,9.705,-5.432,-4.028
-0.160,0.039,1.188,2.991,4.700,-5.249
-0.157,0.015,1.115,-6.287,10.620,-8.911
-0.160,-0.013,1.070,-14.038,18.616,-8.545
-0.179,-0.038,1.046,-14.587,19.897,-8.301
-0.157,-0.010,1.147,-16.296,19.287,-4.456
-0.135,0.029,1.204,-13.000,30.579,-2.075
-0.124,0.049,1.198,-11.597,46.387,-3.296
-0.099,0.031,1.169,-11.658,57.434,-8.911
-0.070,0.018,1.162,-14.221,71.594,-11.902
-0.039,0.027,1.137,-14.954,89.416,-14.404
-0.017,0.020,1.016,-21.545,96.680,-20.447
0.025,-0.010,0.950,-23.804,100.769,-17.578
0.089,-0.007,0.961,-14.038,109.131,-13.184
0.114,0.026,0.866,-11.536,104.370,-18.555
0.138,0.023,0.786,-18.433,90.454,-13.123
0.183,0.006,0.754,-18.066,67.627,-6.836
0.243,0.008,0.778,-10.254,55.420,-0.793
0.281,0.028,0.744,2.808,46.997,2.930
0.275,0.032,0.715,8.484,33.875,7.507
0.331,0.059,0.800,7.019,21.606,4.028
0.356,0.080,0.859,4.395,8.179,1.831
0.361,0.087,0.884,5.127,1.526,0.183
0.373,0.078,0.883,7.019,-1.343,-1.343
0.386,0.066,0.864,11.047,-5.066,-1.343
0.385,0.057,0.897,10.132,-13.306,-2.197
0.378,0.064,0.926,8.423,-14.587,-3.052
0.359,0.036,0.912,7.446,-15.381,-3.784
0.362,0.031,0.971,5.798,-19.592,0.122
0.365,0.036,1.023,5.737,-16.663,-0.427
0.346,0.026,1.003,3.052,-10.132,-0.793
0.345,0.022,1.000,3.967,-7.874,-0.916
0.348,0.039,1.011,4.639,-6.531,-0.366
0.340,0.018,0.990,2.258,-4.395,-0.916
0.327,0.031,0.980,2.197,-2.319,1.343
0.328,0.039,0.973,3.845,-0.305,0.000
0.323,0.047,0.961,0.549,-1.709,0.183
0.315,0.029,0.945,0.427,-4.456,0.671
0.317,0.028,0.962,1.160,-4.456,1.465
0.311,0.018,0.954,0.366,-4.089,1.831
0.314,0.018,0.959,-1.343,-5.676,3.052
0.308,0.017,0.958,0.854,-5.371,1.221
0.301,0.025,0.963,1.587,-5.432,1.099
0.297,0.030,0.958,2.197,-5.493,0.427
0.298,0.026,0.944,2.197,-5.127,0.122
0.293,0.018,0.943,3.113,-7.446,0.854
0.291,0.031,0.960,3.113,-8.972,1.709
0.306,0.042,0.984,1.587,-6.775,2.075
0.292,0.039,0.960,1.221,-4.211,0.061
0.294,0.030,0.963,0.366,-5.066,-0.793
0.283,0.023,0.970,0.488,-6.226,-1.038
0.290,0.019,0.998,0.122,-8.606,-0.854
0.290,0.024,1.007,0.916,-5.615,0.000
0.277,0.011,0.971,-0.305,-3.296,-0.427
0.277,0.009,0.967,2.014,-5.188,-0.610
0.279,0.014,0.983,2.502,-4.028,1.404
0.268,0.019,0.972,0.549,-1.038,2.136
0.269,0.013,0.971,0.183,-1.770,1.282
0.266,0.021,0.977,-1.099,-2.014,3.235
0.258,0.022,0.967,-2.625,-1.648,2.380
0.263,0.029,0.981,-0.427,-3.296,2.197
0.263,0.030,0.980,0.366,-1.770,0.793
0.257,0.029,0.975,-0.427,-1.526,0.671
0.260,0.029,0.977,0.427,-1.709,1.038

0.170,0.028,0.946,-1.404,-28.748,4.700
0.146,0.044,0.941,-0.977,-32.959,2.747
0.142,0.026,0.941,-3.052,-42.847,2.563
0.142,0.034,1.004,-1.892,-43.518,8.850
0.149,0.036,1.104,-5.310,-39.612,9.277
0.137,0.071,1.193,-12.573,-31.982,11.108
0.178,0.124,1.396,-14.465,-20.630,11.414
0.168,0.141,1.411,-9.644,4.944,6.165
0.168,0.155,1.407,-14.099,23.010,2.563
0.173,0.209,1.499,-28.015,35.645,0.916
0.212,0.240,1.575,-42.236,55.115,-7.874
0.241,0.241,1.585,-57.495,90.881,-15.930
0.213,0.199,1.392,-64.514,129.272,-33.203
0.229,0.180,1.259,-76.843,153.503,-37.231
0.310,0.215,1.248,-85.083,179.932,-40.894
0.284,0.166,0.965,-82.947,203.064,-51.208
0.375,0.081,0.929,-90.088,193.542,-46.265
0.401,0.095,0.871,-68.848,202.881,-38.025
0.389,0.097,0.665,-55.603,218.262,-38.574
0.428,0.085,0.397,-70.923,211.243,-40.405
0.542,0.103,0.271,-63.171,183.655,-35.522
0.608,0.144,0.326,-29.419,183.411,-35.095
0.636,0.115,0.298,-4.883,196.899,-33.813
0.591,0.152,-0.047,-3.540,163.269,-23.682
0.679,0.186,-0.037,-24.414,134.277,-14.832
0.692,0.143,-0.138,-1.587,109.558,-22.095
0.686,0.151,-0.233,4.456,78.796,-17.639
0.730,0.138,-0.268,8.240,55.847,-15.137
0.723,0.098,-0.340,1.587,27.832,-4.333
0.733,0.095,-0.377,12.817,3.479,-0.122
0.734,0.104,-0.350,16.052,-18.921,2.075
0.740,0.088,-0.282,20.813,-30.212,6.592
0.733,0.169,-0.258,11.963,-37.109,15.320
0.711,0.236,-0.216,-4.578,-55.420,24.963
0.637,0.157,-0.229,11.597,-78.186,15.747
0.575,0.145,-0.255,34.180,-101.379,14.954
0.535,0.238,-0.174,44.617,-141.174,18.311
0.508,0.183,0.007,34.790,-178.040,18.555
0.469,0.145,0.222,37.292,-188.782,29.968
0.449,0.215,0.352,37.903,-207.092,33.630
0.421,0.093,0.540,33.386,-225.281,31.799
0.471,0.218,0.953,31.921,-208.252,55.969
0.492,0.130,0.900,64.941,-171.997,27.222
0.303,0.249,0.804,57.983,-172.363,29.785
0.285,0.243,1.100,34.546,-229.736,47.974
0.375,0.094,1.236,76.233,-179.321,13.306
0.117,0.196,1.068,78.796,-147.766,32.349
0.057,0.236,1.142,55.420,-164.795,23.437
0.096,0.188,1.151,71.533,-175.720,8.728
-0.004,0.088,1.306,62.073,-162.903,23.193
0.034,0.124,1.597,58.167,-133.789,30.396
0.052,0.109,1.485,69.702,-80.261,18.921
-0.083,0.090,1.359,28.870,-66.345,-5.432
-0.110,0.017,1.283,23.682,-51.636,9.705
-0.097,0.059,1.306,34.912,-36.438,11.780
-0.103,0.077,1.321,23.804,-36.743,2.258
-0.103,0.039,1.253,9.277,-23.865,0.000
-0.128,0.012,1.204,4.761,-10.620,0.610
-0.156,0.007,1.216,4.578,-4.822,1.160
-0.147,0.036,1.265,1.099,-1.404,2.930
-0.131,0.037,1.295,-6.470,17.822,1.343
-0.150,0.029,1.263,-12.634,39.368,-1.587
-0.148,0.024,1.201,-14.893,49.683,-4.089
-0.124,0.027,1.167,-14.648,52.246,-4.700
-0.096,0.003,1.145,-15.503,58.472,-6.042
-0.050,0.004,1.134,-17.822,66.711,-6.042
-0.046,0.032,1.076,-18.188,76.721,-6.409
-0.008,0.034,1.040,-23.499,78.369,-7.141
0.047,0.052,1.037,-27.527,81.970,-6.592
0.086,0.048,1.010,-28.931,91.858,-5.554
0.132,0.059,1.013,-34.912,100.159,-6.042
0.181,0.052,0.971,-34.424,111.328,-9.888
0.215,0.092,0.936,-39.917,114.258,-11.108
0.252,0.080,0.892,-45.227,118.652,-10.254
0.322,0.075,0.879,-46.082,120.728,-4.150
0.364,0.110,0.882,-35.400,135.864,2.502
0.393,0.134,0.738,-23.499,135.803,-5.432
0.420,0.116,0.587,-28.015,100.586,-8.789
0.469,0.113,0.506,-31.555,66.711,0.671
0.538,0.128,0.555,-19.104,44.250,8.972
0.582,0.193,0.592,0.183,34.790,7.996
0.565,0.218,0.537,1.953,20.874,0.854
0.564,0.208,0.498,-2.686,3.784,3.601
0.587,0.223,0.569,-5.737,-12.878,9.338
0.598,0.225,0.633,-1.526,-22.217,5.981
0.575,0.188,0.624,7.202,-27.893,3.601
0.553,0.198,0.649,11.963,-33.813,3.601
0.568,0.223,0.727,12.573,-41.992,2.930
0.558,0.188,0.766,10.193,-45.349,2.502
0.538,0.233,0.805,20.874,-48.157,-1.892
0.543,0.247,0.867,16.907,-54.443,-0.732
0.538,0.220,0.902,11.353,-50.415,1.099
0.534,0.203,0.917,13.672,-40.955,-1.465
0.465,0.162,0.853,17.761,-40.710,-8.301
0.452,0.176,0.891,20.386,-49.072,-10.071
0.482,0.179,0.980,15.930,-45.532,-2.686
0.460,0.190,0.993,11.780,-34.912,2.075
0.432,0.178,0.996,7.812,-25.452,1.892
0.429,0.165,0.992,6.165,-21.484,0.061
0.421,0.156,0.977,10.437,-18.005,-3.235
0.396,0.144,0.955,2.625,-25.330,-6.042
0.375,0.133,0.940,0.427,-20.935,-0.977
0.375,0.147,0.961,0.061,-19.226,0.305
0.376,0.161,0.973,-0.305,-11.536,0.305
0.356,0.164,0.961,-2.563,-11.169,-2.441
0.338,0.143,0.932,-0.854,-12.512,-2.686
0.337,0.142,0.937,1.404,-6.958,-0.549
0.334,0.140,0.922,-1.587,-7.141,-0.610
0.329,0.131,0.921,0.732,-3.113,0.977
0.327,0.134,0.916,2.563,-3.662,1.770
0.325,0.136,0.917,1.282,-6.653,2.930
0.325,0.138,0.932,2.625,-7.629,2.991
0.325,0.150,0.947,2.258,-6.836,2.808
0.320,0.149,0.940,2.136,-7.019,2.747
0.313,0.150,0.939,2.808,-9.277,2.319
0.319,0.146,0.966,2.319,-12.146,1.831
0.328,0.142,1.008,-0.183,-5.737,3.296
0.302,0.142,0.963,0.244,-0.427,2.380
0.307,0.154,0.959,1.160,-2.808,1.831
0.307,0.147,0.949,0.122,-4.578,1.709
0.298,0.140,0.953,0.488,-5.127,1.282
0.300,0.148,0.959,1.892,-3.601,1.709
0.292,0.151,0.942,1.099,-3.235,1.038
0.291,0.147,0.954,0.793,-5.737,1.160
0.295,0.146,0.979,-0.549,-3.845,1.648

0.225,0.142,0.979,2.136,-4.639,-0.977
0.231,0.137,0.997,2.014,-3.296,-1.770
0.235,0.126,0.983,1.038,0.061,-2.258
0.215,0.095,0.930,-0.366,-1.831,-2.258
0.217,0.097,0.929,1.160,-6.775,-0.366
0.206,0.101,0.949,0.366,-12.939,0.916
0.222,0.118,0.997,1.160,-15.564,4.089
0.231,0.153,1.035,3.967,-16.235,3.662
0.300,0.268,1.210,6.470,-14.343,10.498
0.414,0.397,1.537,4.822,0.854,10.986
0.411,0.365,1.607,-9.521,31.982,-10.010
0.362,0.204,1.466,-33.630,51.392,-20.935
0.396,0.093,1.442,-58.533,70.984,-17.883
0.435,0.212,1.462,-43.335,100.037,-12.512
0.376,0.285,1.274,-33.081,127.319,-25.208
0.336,0.239,1.217,-73.364,146.423,-34.241
0.363,0.164,1.185,-101.257,169.922,-36.865
0.312,0.098,0.893,-68.420,176.453,-48.767
0.367,0.196,0.692,-30.701,169.434,-44.250
0.407,0.184,0.556,-27.649,164.062,-41.382
0.398,0.053,0.290,-29.907,166.260,-43.091
0.396,-0.026,0.046,-19.714,154.907,-44.678
0.437,-0.090,-0.060,-3.357,134.827,-39.185
0.407,-0.086,-0.165,9.583,106.873,-15.198
0.380,-0.008,-0.174,7.324,58.167,10.925
0.353,0.023,-0.200,20.569,-2.441,16.235
0.355,0.031,-0.172,26.794,-64.514,28.076
0.385,0.140,-0.082,43.762,-113.647,31.372
0.353,0.190,0.008,48.828,-148.865,28.320
0.300,0.209,0.116,41.382,-181.213,28.320
0.237,0.172,0.306,24.048,-221.863,30.945
0.178,0.155,0.564,32.043,-243.286,36.560
0.092,0.207,0.778,47.607,-264.221,39.734
0.162,0.050,1.020,72.144,-251.953,30.945
0.042,0.176,1.109,80.750,-250.610,58.228
-0.152,0.140,1.237,83.252,-257.446,1.770
-0.289,0.022,1.298,69.824,-239.563,28.625
-0.155,-0.010,1.670,48.828,-216.492,33.630
-0.141,-0.082,1.542,62.500,-157.898,33.813
-0.346,0.104,1.390,65.369,-109.375,31.189
-0.335,0.102,1.466,27.710,-103.088,14.221
-0.374,0.055,1.659,14.038,-78.491,8.545
-0.285,0.089,1.871,-5.066,-55.969,7.629
-0.365,0.118,1.876,2.991,24.963,2.380
-0.425,0.119,1.646,-13.000,31.067,-6.409
-0.301,0.074,1.774,-21.790,70.374,-12.024
-0.301,0.080,1.637,-12.512,114.380,-13.977
-0.282,0.086,1.514,-24.963,145.691,-15.991
-0.227,0.047,1.442,-37.537,179.932,-29.541
-0.131,0.025,1.392,-55.725,207.642,-28.015
-0.125,0.080,1.243,-62.805,238.159,-39.124
-0.080,0.083,1.045,-69.641,246.399,-32.349
0.141,0.037,1.095,-97.656,262.451,-20.752
0.163,0.079,1.036,-87.952,291.382,-14.709
0.131,0.063,0.747,-82.092,293.579,-16.479
0.220,0.014,0.513,-62.256,248.657,-21.667
0.329,-0.005,0.387,-51.880,220.581,-12.146
0.245,0.015,0.049,-43.213,170.654,-19.775
0.351,-0.011,-0.172,-26.001,124.207,-15.747
0.449,0.052,-0.172,3.357,92.346,-6.042
0.540,0.099,-0.105,8.301,60.181,1.770
0.562,0.117,-0.175,12.329,17.334,8.179
0.558,0.178,-0.225,22.156,-42.358,9.644
0.596,0.231,-0.124,24.780,-89.355,12.756
0.610,0.312,0.071,20.813,-112.061,16.785
0.592,0.200,0.208,21.179,-130.859,16.418
0.526,0.103,0.258,39.734,-136.292,11.719
0.474,0.233,0.389,49.988,-158.081,3.845
0.582,0.213,0.776,27.222,-167.297,11.780
0.557,0.194,0.858,33.447,-154.602,12.329
0.499,0.207,0.916,43.213,-184.875,23.254
0.458,0.135,1.000,72.021,-180.054,-22.583
0.459,0.165,1.097,77.820,-164.368,-3.479
0.347,0.173,1.154,48.218,-130.676,6.042
0.312,0.108,1.195,39.185,-117.981,-6.836
0.341,0.122,1.338,36.560,-102.478,-2.380
0.290,0.123,1.397,31.189,-75.745,0.427
0.360,0.158,1.495,21.118,-48.218,2.380
0.291,0.110,1.337,16.174,-11.536,-6.226
0.226,0.059,1.175,3.357,1.526,-9.155
0.228,0.031,1.123,2.625,-1.648,-4.944
0.233,0.039,1.099,6.409,-1.587,0.000
0.224,0.072,1.074,2.747,1.648,0.122
0.218,0.074,1.029,-2.930,4.822,-0.854
0.215,0.073,0.993,-3.235,6.531,0.610
0.201,0.068,0.963,-2.380,5.798,1.526
0.192,0.068,0.972,-3.479,3.418,-0.793
0.201,0.057,0.983,-2.747,4.272,-2.502
0.189,0.033,0.955,-1.587,2.502,-3.479
0.183,0.040,0.945,-1.892,-3.296,-3.723
0.195,0.042,0.954,-1.160,-1.953,-0.488
0.185,0.039,0.935,-1.343,-3.967,-0.183
0.195,0.048,0.955,-2.197,-8.362,0.244
0.203,0.067,0.995,0.061,-7.202,0.244
0.199,0.071,0.997,-6.653,-10.254,0.122
0.187,0.073,1.009,-8.850,-10.620,1.709
0.180,0.069,1.003,-3.906,-6.409,0.854
0.184,0.061,1.012,-2.319,-4.578,0.427
0.177,0.068,1.003,-0.488,-2.625,1.587
0.175,0.071,0.984,0.183,-2.563,1.648
0.175,0.064,0.982,-1.648,-2.563,2.869
0.162,0.085,0.975,1.099,-0.305,3.723
0.167,0.095,0.980,0.488,-3.052,2.869
0.169,0.089,0.990,0.244,-5.066,1.038
0.163,0.087,1.005,1.526,-5.493,0.732
0.162,0.079,1.002,1.038,-3.540,-0.244
0.147,0.087,0.989,1.709,-2.625,-0.977
0.154,0.074,0.978,1.892,-4.395,-3.601
0.147,0.055,0.972,2.441,-5.981,-1.770
0.140,0.050,0.967,5.798,-8.057,-2.136
0.158,0.073,0.993,4.944,-9.277,-0.671
0.142,0.083,0.996,0.427,-6.958,-0.977
0.145,0.067,1.001,1.038,-8.545,-0.488
0.143,0.073,1.011,1.831,-4.211,0.366
0.132,0.074,1.004,1.648,-3.906,-2.075
0.139,0.055,0.997,1.465,-3.845,-0.793
0.127,0.060,0.995,2.075,-4.822,-1.160
0.130,0.050,1.003,0.732,-5.310,-0.427
0.126,0.052,1.003,1.465,-5.432,0.610
0.129,0.061,1.013,2.441,-4.822,1.343
0.133,0.073,1.022,1.709,-2.563,0.854
0.122,0.071,1.002,0.732,-0.061,-0.305
0.118,0.058,1.002,0.488,-1.221,-0.366
0.119,0.057,0.997,0.977,-1.221,-0.671
0.113,0.060,0.985,1.770,-1.648,-1.831

0.089,0.024,0.966,2.502,1.343,-2.258
0.089,0.022,0.980,1.465,-2.686,-0.916
0.092,0.031,0.999,0.671,-3.235,0.366
0.089,0.027,0.982,-0.244,-2.930,0.916
0.088,0.033,0.988,0.793,-4.883,1.404
0.089,0.040,1.011,1.160,-6.531,1.770
0.081,0.041,1.006,-0.916,-7.446,1.343
0.090,0.043,1.009,1.648,-5.981,1.282
0.086,0.051,1.003,0.244,-7.996,1.892
0.084,0.044,1.021,-2.563,-10.254,2.563
0.111,0.030,1.090,-6.042,-11.902,5.005
0.214,0.014,1.274,-15.198,-0.671,13.550
0.276,0.085,1.520,-26.917,26.855,22.095
0.168,0.181,1.559,-36.682,40.649,15.869
0.161,0.231,1.567,-46.082,49.927,10.559
0.167,0.254,1.531,-42.053,79.285,0.977
0.181,0.259,1.469,-37.476,96.069,-5.798
0.195,0.200,1.357,-37.537,126.831,-17.456
0.184,0.190,1.250,-53.650,161.316,-24.658
0.153,0.142,0.951,-55.359,189.575,-38.940
0.243,0.139,0.764,-56.335,193.359,-33.875
0.325,0.133,0.650,-42.847,171.753,-30.151
0.411,0.154,0.583,-32.654,149.292,-32.166
0.462,0.147,0.465,-35.645,128.723,-34.302
0.553,0.142,0.369,-36.316,121.582,-30.701
0.601,0.136,0.310,-31.982,109.131,-21.240
0.654,0.150,0.316,-19.897,91.370,-12.268
0.649,0.159,0.276,-10.986,74.524,-12.024
0.628,0.121,0.245,-13.062,52.551,-6.531
0.666,0.122,0.297,-19.714,33.447,-0.305
0.666,0.091,0.256,-15.442,24.780,4.150
0.668,0.122,0.216,-9.521,13.733,9.827
0.697,0.181,0.201,-2.869,-4.272,10.559
0.703,0.210,0.218,0.793,-14.954,11.230
0.675,0.235,0.222,0.549,-22.888,11.841
0.665,0.222,0.207,6.836,-36.682,10.315
0.643,0.258,0.223,13.123,-56.702,8.118
0.594,0.211,0.235,20.264,-77.698,4.211
0.530,0.089,0.191,27.771,-95.459,6.226
0.441,0.165,0.219,33.569,-127.869,17.334
0.436,0.174,0.336,33.752,-165.466,19.409
0.390,0.077,0.541,39.307,-167.053,32.776
0.274,0.174,0.677,54.565,-162.842,35.706
0.254,0.075,0.700,69.763,-174.255,18.799
0.071,0.102,0.771,55.359,-172.791,25.146
0.102,0.183,1.082,41.016,-199.158,58.472
0.120,0.066,1.273,67.017,-226.379,7.141
-0.055,0.036,1.168,77.759,-195.618,20.508
-0.119,0.115,1.395,44.861,-177.002,28.564
-0.067,0.005,1.428,42.236,-151.733,20.630
-0.337,0.114,1.417,42.297,-113.525,28.992
-0.322,0.119,1.497,46.509,-120.789,13.855
-0.181,0.023,1.497,35.645,-99.182,2.991
-0.201,0.045,1.485,17.090,-54.321,17.639
-0.269,0.066,1.364,19.043,-14.954,4.028
-0.321,0.047,1.250,10.742,-4.578,-1.953
-0.323,0.045,1.292,-1.099,-7.263,2.258
-0.262,0.077,1.414,-3.906,2.197,-0.366
-0.253,0.094,1.425,-8.911,30.640,-4.944
-0.260,0.067,1.426,-21.729,58.838,-6.531
-0.265,0.060,1.406,-17.334,81.665,-11.353
-0.238,0.038,1.342,-20.325,97.839,-14.709
-0.199,0.037,1.321,-25.940,114.990,-15.747
-0.155,0.072,1.271,-34.241,133.545,-21.179
-0.108,0.048,1.190,-51.086,151.550,-24.109
-0.041,0.020,1.126,-53.223,167.908,-21.729
0.001,0.016,0.989,-44.373,176.880,-27.344
0.063,0.010,0.873,-41.260,169.678,-28.442
0.159,0.034,0.770,-38.940,159.302,-23.071
0.205,0.002,0.615,-38.696,156.067,-16.235
0.251,0.011,0.459,-27.161,127.747,-4.578
0.305,0.098,0.370,-7.324,76.904,2.014
0.395,0.167,0.416,3.174,34.729,-4.089
0.482,0.172,0.538,-10.254,16.052,2.075
0.486,0.143,0.521,-6.104,16.663,0.305
0.433,0.139,0.468,4.883,7.385,-0.977
0.440,0.130,0.512,3.296,-12.024,0.427
0.440,0.091,0.570,4.456,-31.372,4.272
0.430,0.117,0.664,8.057,-41.443,11.292
0.444,0.146,0.734,15.137,-46.021,10.132
0.428,0.118,0.751,12.939,-50.110,7.690
0.386,0.108,0.815,8.667,-55.908,13.123
0.409,0.113,0.882,17.639,-68.054,21.240
0.362,0.150,0.951,29.846,-70.068,-0.977
0.404,0.189,1.080,24.780,-67.749,14.771
0.424,0.191,1.115,23.987,-50.842,10.803
0.353,0.188,1.068,17.944,-39.551,1.587
0.336,0.163,1.067,13.428,-38.330,3.601
0.335,0.147,1.067,15.747,-29.175,0.977
0.313,0.143,1.062,9.399,-23.499,0.854
0.284,0.135,1.079,6.714,-23.376,0.732
0.286,0.138,1.102,6.958,-20.264,1.770
0.293,0.145,1.124,4.700,-11.230,-0.122
0.267,0.127,1.084,1.587,-1.770,-3.418
0.248,0.101,1.024,1.831,-0.610,-3.967
0.244,0.088,1.001,1.465,0.183,-1.587
0.246,0.089,0.995,0.427,0.488,-0.366
0.244,0.106,0.992,0.732,1.160,-0.183
0.249,0.106,0.969,0.244,0.916,-2.075
0.245,0.092,0.955,-0.793,0.732,-1.709
0.236,0.099,0.962,-0.427,-1.099,-0.732
0.244,0.091,0.969,0.610,-1.953,-2.014
0.241,0.082,0.953,-0.305,-0.732,-1.465
0.237,0.076,0.942,0.244,-2.136,-1.587
0.236,0.086,0.965,1.648,-5.188,-0.061
0.244,0.091,0.976,1.221,-5.920,0.793
0.236,0.093,0.971,0.732,-5.493,-0.671
0.238,0.087,0.983,-1.343,-5.310,0.366
0.232,0.096,0.985,1.953,-5.493,0.977
0.239,0.095,0.983,-0.610,-4.150,0.488
0.226,0.082,0.964,-0.488,-3.418,0.061
0.217,0.094,0.974,1.465,-5.127,0.916
0.221,0.092,0.977,1.160,-7.446,0.427
0.214,0.097,0.977,0.671,-7.080,0.732
0.213,0.096,0.981,0.732,-6.409,1.221
0.215,0.115,0.999,2.014,-5.981,0.244
0.208,0.108,0.994,-0.122,-4.272,-1.343
0.198,0.084,0.993,-0.854,-3.235,-0.671
0.209,0.082,1.004,0.977,-0.732,0.427
0.201,0.088,0.969,0.061,-0.732,-0.427
0.201,0.089,0.965,0.183,-3.906,0.854
0.205,0.099,0.985,1.831,-3.540,0.732
0.204,0.093,0.993,-0.732,-1.648,0.793
0.189,0.083,0.981,-0.549,-0.549,0.488
0.196,0.091,0.990,0.793,-2.502,1.038

0.151,0.099,0.982,1.160,-6.104,1.282
0.151,0.092,0.984,0.610,-7.385,0.977
0.144,0.080,0.974,1.282,-7.996,0.061
0.130,0.070,0.976,-0.977,-9.583,1.953
0.139,0.083,1.006,2.258,-12.146,2.686
0.138,0.085,1.014,3.845,-11.963,2.441
0.136,0.077,1.031,1.770,-10.498,2.502
0.131,0.099,1.032,3.723,-6.836,3.174
0.123,0.118,1.015,3.723,-6.592,2.319
0.124,0.105,1.020,-0.061,-9.277,1.343
0.146,0.096,1.111,-2.502,-5.249,2.808
0.184,0.086,1.231,-3.723,6.042,4.883
0.229,0.163,1.394,-1.526,35.583,11.719
0.160,0.333,1.444,-0.488,54.749,-7.141
0.300,0.281,1.581,-20.325,71.594,-18.982
0.359,0.124,1.664,-47.119,113.586,-21.301
0.252,0.109,1.543,-56.152,167.786,-31.250
0.204,0.143,1.354,-51.331,222.046,-28.076
0.338,0.115,1.345,-69.641,266.724,-19.409
0.344,0.042,1.156,-78.369,295.532,-24.902
0.321,0.071,0.800,-73.914,274.719,-40.649
0.339,0.048,0.481,-74.341,232.483,-43.823
0.352,0.048,0.124,-53.040,223.145,-37.476
0.402,0.028,-0.183,-25.452,193.054,-26.184
0.447,0.081,-0.372,-8.362,151.733,-19.409
0.448,0.090,-0.508,3.723,90.393,-14.771
0.422,0.079,-0.589,11.536,22.522,-9.216
0.427,0.096,-0.482,17.151,-46.753,3.662
0.443,0.141,-0.322,25.513,-104.431,9.644
0.376,0.215,-0.206,39.795,-154.541,7.019
0.286,0.100,-0.059,45.837,-216.125,-3.723
0.232,-0.026,0.183,47.852,-266.296,-0.366
0.183,-0.063,0.562,19.287,-283.142,30.090
0.101,-0.007,0.775,16.174,-276.001,39.673
0.001,0.079,0.862,41.260,-289.307,35.706
-0.024,0.014,1.271,60.730,-327.087,45.288
-0.097,0.075,1.324,114.624,-277.283,12.146
-0.137,0.070,1.497,62.622,-261.414,23.254
0.014,0.018,1.854,37.781,-189.148,33.081
-0.088,0.169,1.839,31.311,-118.713,22.217
-0.159,0.160,1.920,-6.470,-62.378,19.836
-0.085,0.157,2.208,-24.414,-9.705,21.790
-0.117,0.304,2.203,-20.020,58.105,5.920
-0.021,0.302,2.143,-29.419,104.553,-6.531
-0.072,0.181,1.956,-39.063,157.715,-24.719
-0.157,0.029,1.731,-58.105,197.388,-37.903
-0.058,0.023,1.540,-52.490,226.440,-43.579
-0.066,0.075,1.227,-56.580,249.390,-42.480
0.004,0.045,0.955,-90.332,261.169,-39.246
0.106,-0.041,0.840,-98.999,260.986,-22.766
0.160,-0.011,0.571,-59.875,245.422,-22.949
0.286,0.032,0.316,-53.589,197.510,-26.367
0.376,0.071,0.154,-48.096,158.997,-14.099
0.393,0.100,-0.043,-5.310,142.883,-12.207
0.414,0.173,-0.174,17.700,110.229,-16.357
0.434,0.141,-0.255,20.203,66.833,-24.048
0.436,0.103,-0.267,1.526,18.677,-12.939
0.421,0.095,-0.221,11.841,-38.208,-0.122
0.422,0.168,-0.107,31.555,-87.952,3.723
0.390,0.220,0.035,46.570,-140.015,-5.310
0.331,0.083,0.160,28.992,-181.702,-1.831
0.245,0.071,0.411,13.916,-205.322,18.555
0.235,0.036,0.645,34.729,-216.431,19.775
0.190,-0.049,0.729,65.063,-214.783,18.127
0.121,0.057,0.956,80.811,-247.314,59.143
0.121,0.031,1.289,110.962,-239.441,-18.188
0.091,-0.126,1.238,85.144,-192.566,16.357
-0.155,0.003,1.279,46.509,-151.245,36.499
-0.004,-0.057,1.663,48.218,-137.695,28.015
0.073,-0.036,1.749,53.406,-93.201,23.132
-0.043,0.015,1.661,35.828,-35.278,25.513
0.031,-0.005,1.684,20.325,-3.052,12.634
0.056,-0.031,1.661,10.071,10.437,9.827
0.127,-0.048,1.715,7.935,22.644,17.761
0.141,-0.000,1.738,7.019,56.519,26.428
0.162,0.059,1.650,-18.555,86.853,21.362
0.086,-0.021,1.592,-33.508,123.169,11.230
0.178,-0.048,1.483,-50.232,163.879,29.846
0.230,-0.032,1.312,-62.744,202.576,30.701
0.307,-0.003,1.197,-82.581,213.501,14.893
0.301,0.012,1.077,-87.891,219.971,17.944
0.362,0.051,0.994,-101.379,243.835,28.748
0.390,0.072,0.779,-93.445,261.414,37.415
0.388,0.024,0.485,-92.407,241.211,30.579
0.414,0.069,0.273,-95.947,186.401,48.157
0.555,0.113,0.224,-76.294,123.657,45.105
0.489,0.159,0.097,-63.354,78.552,29.297
0.442,0.202,-0.054,-60.791,62.256,19.592
0.451,0.223,-0.115,-44.861,59.265,8.911
0.507,0.203,-0.122,-18.066,54.321,-3.174
0.524,0.207,-0.131,16.968,21.240,-25.574
0.541,0.213,-0.095,29.907,-27.710,-17.639
0.570,0.177,-0.029,30.701,-78.247,3.479
0.523,0.137,0.007,41.992,-124.878,16.968
0.372,0.234,0.084,61.157,-170.288,1.953
0.376,0.218,0.265,83.923,-213.379,-37.537
0.375,0.069,0.512,107.361,-209.839,-8.850
0.374,0.239,0.767,101.501,-240.417,45.288
0.324,0.088,1.046,94.177,-264.771,-55.481
0.539,-0.004,1.401,106.934,-205.811,-23.560
0.379,0.200,1.402,96.863,-137.939,-6.897
0.261,0.195,1.303,69.092,-111.938,-21.362
0.215,0.042,1.304,32.043,-88.196,-19.592
0.322,0.040,1.443,19.775,-82.703,-9.521
0.288,0.066,1.341,34.973,-54.504,-13.306
0.213,0.044,1.247,19.775,-37.170,-8.789
0.157,-0.028,1.216,10.010,-33.508,-6.592
0.202,-0.002,1.260,14.343,-21.423,-15.747
0.182,0.015,1.184,18.555,-12.756,-15.198
0.136,0.011,1.107,13.855,-1.953,-9.888
0.156,-0.020,1.093,7.202,6.226,-3.418
0.127,-0.043,1.011,-1.038,5.432,-4.395
0.091,-0.071,0.946,-0.732,7.385,-9.705
0.096,-0.058,0.966,5.981,-2.319,-8.545
0.127,-0.033,1.005,7.080,-2.869,-5.981
0.162,-0.042,1.050,2.136,6.104,-2.686
0.139,-0.032,1.015,4.761,15.442,-3.662
0.123,-0.041,0.965,3.479,14.648,-6.287
0.116,-0.044,0.936,1.892,7.507,-2.380
0.126,-0.045,0.944,-2.136,0.671,-1.770
0.133,-0.063,0.958,-5.615,-1.526,-0.977
0.127,-0.065,0.974,-1.404,-3.723,-4.517
0.142,-0.053,0.995,3.601,-6.165,-9.705
0.144,-0.028,1.011,-4.883,-12.329,-8.484
0.151,-0.027,1.010,-8.728,-11.780,-9.277

0.154,0.157,0.919,33.508,16.907,-6.470
0.101,0.113,0.897,36.926,-18.616,-15.991
0.015,0.047,0.813,43.091,2.380,-11.597
0.026,0.004,0.749,24.963,1.953,5.066
0.052,0.087,0.772,20.813,-28.748,3.662
0.045,0.074,0.879,36.682,-33.142,-10.437
0.013,0.083,0.925,29.114,-31.860,-12.268
-0.026,0.074,0.890,26.733,-55.786,0.366
-0.068,0.052,0.864,30.762,-69.946,-10.742
-0.051,0.010,1.025,49.316,-76.050,-26.611
0.028,-0.002,1.515,27.954,-39.124,-16.602
0.036,0.232,1.698,15.991,11.169,1.404
-0.015,0.288,1.811,-23.193,30.701,-3.601
0.053,0.240,1.919,-55.176,62.561,-7.690
0.013,0.197,1.776,-27.283,123.108,-35.339
-0.037,0.157,1.567,-43.701,150.513,-46.143
0.085,0.126,1.761,-104.919,197.205,-36.194
0.027,0.102,1.482,-126.221,268.433,-48.645
0.043,0.048,1.113,-126.160,292.114,-54.260
0.153,0.072,1.097,-88.745,332.275,-56.396
0.196,0.072,0.706,-66.589,307.129,-56.580
0.207,-0.066,0.343,-64.758,243.774,-40.588
0.281,-0.035,0.044,-53.101,188.538,-19.104
0.299,-0.063,-0.220,-22.095,147.949,-9.033
0.341,-0.006,-0.421,-5.737,115.479,-5.798
0.368,-0.003,-0.496,12.939,86.548,-1.343
0.378,0.100,-0.598,40.405,20.081,-0.793
0.392,0.211,-0.454,36.255,-65.918,20.142
0.357,0.235,-0.320,30.334,-145.325,48.096
0.249,0.206,-0.161,49.744,-229.309,58.533
0.128,0.198,0.166,71.533,-294.739,50.659
-0.087,0.067,0.453,103.882,-319.580,46.814
-0.186,-0.152,0.922,128.784,-314.209,49.988
0.155,-0.078,1.523,85.693,-326.416,89.905
0.073,0.258,1.473,91.492,-317.688,119.019
-0.255,0.247,1.324,153.992,-234.253,4.761
-0.310,0.015,1.456,121.704,-198.975,-13.184
-0.006,0.005,1.870,10.925,-151.062,29.907
-0.155,0.067,1.722,45.166,-73.181,12.268
-0.297,0.103,1.604,26.794,-74.402,17.700
-0.200,0.198,1.777,27.344,-17.456,1.343
-0.213,0.221,1.824,23.865,9.827,-14.954
-0.236,0.180,1.742,2.686,48.035,-13.367
-0.167,0.106,1.698,-25.208,85.266,-15.808
-0.126,0.050,1.677,-37.170,135.742,-33.020
-0.128,0.088,1.710,-40.405,187.073,-43.030
-0.146,0.058,1.519,-45.532,201.172,-27.039
-0.063,0.001,1.349,-67.749,243.774,-19.165
0.100,0.065,1.335,-109.741,323.181,-36.011
0.013,0.028,1.013,-145.935,348.145,-61.890
0.128,-0.131,0.755,-152.344,333.862,-50.598
0.356,-0.090,0.829,-67.810,354.553,-11.841
0.137,0.068,0.259,-29.419,343.811,1.953
0.247,-0.070,-0.160,-67.383,226.868,9.277
0.380,-0.007,-0.294,-70.618,108.459,4.883
0.394,0.128,-0.345,-28.076,83.740,-6.470
0.474,0.183,-0.328,7.019,85.693,-0.488
0.476,0.090,-0.446,31.555,27.222,-7.874
0.441,0.208,-0.510,51.453,-60.974,-2.380
0.484,0.332,-0.232,9.949,-165.955,9.644
0.497,0.270,0.020,8.606,-179.077,16.785
0.337,0.102,0.017,41.870,-207.886,13.794
0.145,0.052,0.141,69.031,-253.296,1.099
0.047,0.014,0.439,88.318,-279.419,-7.996
0.128,0.230,0.887,35.889,-284.241,31.372
0.124,0.027,1.111,30.396,-318.542,49.072
0.177,0.138,1.610,93.140,-285.645,-22.949
0.248,0.257,1.653,108.765,-200.623,-19.836
0.098,0.229,1.430,70.496,-149.597,-38.086
-0.065,0.250,1.341,30.334,-154.053,-50.232
-0.060,0.009,1.525,12.695,-164.490,-49.194
0.163,0.008,2.070,8.972,-88.074,1.160
0.021,0.152,1.862,29.846,-21.729,-3.174
-0.096,0.129,1.574,2.136,0.000,-5.310
-0.044,0.112,1.605,-4.456,13.245,-7.629
0.023,0.098,1.710,-10.559,55.298,0.977
-0.062,0.192,1.646,-19.348,103.394,5.859
-0.083,0.191,1.609,-25.879,131.958,-3.296
0.031,0.097,1.677,-22.888,187.927,-13.794
-0.018,0.098,1.570,-32.104,246.704,-21.973
-0.095,0.036,1.196,-70.679,324.585,-36.011
0.047,-0.053,0.848,-113.525,329.040,-35.645
0.176,-0.065,0.648,-74.463,322.571,-28.259
0.338,0.058,0.440,-36.926,274.963,-31.128
0.390,0.063,0.139,-38.757,220.032,-14.587
0.492,0.059,-0.005,-50.476,148.499,0.366
0.546,0.057,-0.110,-31.494,95.398,-2.686
0.634,0.039,-0.044,-27.771,74.036,-3.723
0.645,0.075,-0.073,-6.775,68.176,0.793
0.637,0.095,-0.171,-0.244,38.269,5.432
0.619,0.162,-0.114,-5.127,-1.526,19.165
0.622,0.156,-0.061,2.136,-46.387,19.592
0.633,0.136,0.013,4.333,-82.642,28.381
0.611,0.149,0.116,6.958,-99.915,38.757
0.542,0.086,0.108,17.334,-103.943,46.448
0.476,0.060,0.102,30.457,-114.502,58.411
0.396,0.147,0.203,77.881,-138.367,65.796
0.280,0.174,0.433,98.999,-190.796,60.547
0.310,0.338,0.706,99.548,-257.935,23.071
0.153,0.200,0.844,105.530,-290.955,-4.517
0.057,0.138,1.205,96.619,-289.124,18.127
0.210,0.199,1.568,97.656,-237.427,2.014
0.152,0.044,1.576,111.023,-157.288,-20.569
0.160,0.067,1.822,75.378,-78.125,-5.859
0.220,0.134,1.601,60.242,-40.283,-19.958
0.104,0.061,1.336,27.832,-45.349,-15.259
0.108,0.034,1.333,12.329,-32.898,-5.798
0.138,-0.015,1.368,13.428,-23.071,-8.484
0.148,-0.018,1.332,1.343,6.714,3.052
0.039,0.016,1.161,-12.146,15.442,5.981
0.069,-0.005,1.081,-13.000,7.141,9.705
0.072,0.027,1.109,-12.207,11.169,14.099
0.066,0.027,1.082,-19.897,20.508,7.568
0.055,0.016,1.029,-17.334,26.550,4.700
0.068,-0.001,1.057,-5.676,25.146,2.869
0.076,0.052,1.080,-1.709,34.729,-1.099
0.106,0.036,1.113,-16.846,42.419,-5.005
0.190,0.099,1.222,-32.166,63.782,2.441
0.118,0.101,0.996,-22.888,72.998,-3.296
0.184,0.052,0.967,-39.978,55.725,-10.559
0.208,0.024,0.890,-36.377,61.584,-3.906
0.218,0.019,0.809,-17.639,50.049,-5.859
0.246,0.032,0.727,-4.028,34.668,-5.066
0.262,0.088,0.724,-0.549,10.986,-2.808
0.327,0.094,0.896,-7.751,12.756,1.648

0.183,0.052,0.984,24.658,-18.677,4.944
0.191,0.050,1.010,19.836,-17.456,4.028
0.167,0.034,0.989,16.968,-18.005,3.418
0.162,0.010,0.991,15.747,-21.423,5.371
0.157,0.008,1.024,17.517,-20.996,6.531
0.155,0.015,1.037,15.137,-17.944,6.287
0.129,0.012,1.003,9.155,-17.517,5.127
0.113,0.000,0.980,8.850,-20.020,4.272
0.111,-0.018,1.008,15.686,-19.653,3.784
0.122,-0.028,1.043,15.137,-17.883,3.174
0.123,-0.075,1.080,5.310,-18.311,3.174
0.147,-0.046,1.210,-5.005,-13.489,13.855
0.162,0.015,1.360,-3.357,-1.831,18.372
0.246,0.083,1.573,-9.521,21.301,21.667
0.268,0.159,1.648,-22.827,64.636,17.761
0.241,0.148,1.593,-37.537,91.675,7.324
0.246,0.170,1.573,-58.838,130.188,5.737
0.268,0.178,1.547,-78.674,170.837,-7.263
0.245,0.099,1.444,-98.450,222.961,-20.447
0.224,0.094,1.279,-105.530,272.644,-27.771
0.232,0.098,0.984,-86.853,282.166,-33.325
0.365,0.092,1.013,-96.680,299.683,-17.395
0.205,0.014,0.528,-85.754,272.827,-28.687
0.273,-0.097,0.070,-80.566,217.590,-33.997
0.354,-0.069,-0.216,-78.552,168.213,-14.282
0.327,-0.008,-0.496,-26.428,154.480,-6.653
0.343,0.009,-0.734,11.353,100.769,7.202
0.295,0.081,-0.856,36.011,8.423,11.414
0.334,0.101,-0.630,40.161,-104.675,12.451
0.386,0.096,-0.239,44.922,-178.406,24.963
0.359,0.051,-0.010,54.016,-220.703,32.166
0.215,0.092,0.163,74.951,-275.940,35.034
0.118,0.053,0.483,91.736,-319.763,20.630
0.220,0.003,0.987,67.261,-303.650,32.593
0.201,0.046,1.286,67.505,-246.094,53.711
0.288,0.154,1.264,71.594,-254.639,101.501
0.083,0.083,1.211,116.028,-247.864,-23.132
-0.098,0.037,1.121,119.873,-212.280,5.920
0.040,0.143,1.537,74.036,-163.025,29.419
0.083,0.119,1.542,77.698,-103.882,17.822
-0.143,0.093,1.427,45.532,-101.562,8.423
-0.026,0.025,1.608,0.732,-98.328,16.479
0.006,0.069,1.870,-3.906,-68.848,11.047
-0.004,0.135,1.962,2.991,-2.136,8.057
-0.053,0.291,1.926,-14.954,38.879,12.512
-0.013,0.198,1.789,-16.541,76.294,-17.456
-0.047,0.089,1.640,-23.926,119.385,-32.166
-0.007,-0.033,1.528,-41.260,160.461,-21.606
0.020,0.007,1.536,-42.297,224.365,-14.526
-0.044,0.055,1.234,-38.513,220.337,-17.822
0.065,-0.007,1.016,-73.425,224.243,-17.029
0.135,-0.061,0.786,-67.078,249.756,-20.508
0.154,-0.078,0.521,-27.649,248.108,-16.663
0.347,-0.015,0.402,23.132,198.853,0.366
0.436,0.005,0.272,61.707,140.625,11.353
0.407,0.224,0.118,38.330,80.383,-10.254
0.424,0.180,-0.034,-36.560,29.663,-18.066
0.426,0.003,-0.038,-54.749,16.541,-4.028
0.401,-0.056,-0.053,-23.315,0.183,4.639
0.417,0.027,0.075,7.141,-44.922,0.549
0.492,0.078,0.310,17.273,-87.585,-3.052
0.393,0.128,0.348,11.353,-128.296,7.080
0.288,0.121,0.437,-2.258,-189.087,22.522
0.251,0.032,0.609,6.531,-209.229,24.780
0.215,-0.010,0.942,19.470,-211.304,10.437
0.261,0.075,1.088,47.485,-216.248,47.791
0.104,0.004,1.039,75.012,-215.393,-13.733
0.007,-0.086,1.034,42.603,-210.999,34.485
-0.138,0.040,1.209,-4.272,-180.847,60.425
-0.238,0.095,1.388,-3.418,-163.330,35.583
-0.218,0.072,1.568,25.146,-159.363,15.259
-0.076,0.168,1.750,31.921,-121.582,23.254
-0.132,0.226,1.648,53.040,-59.692,23.865
-0.202,0.225,1.523,34.485,-28.076,5.798
-0.180,0.159,1.498,2.625,5.554,-0.916
-0.137,0.116,1.599,-13.733,49.438,-5.310
-0.221,0.111,1.606,-20.081,94.849,-5.493
-0.131,0.124,1.694,-37.415,133.789,-9.705
-0.058,0.161,1.637,-41.443,189.453,-35.034
-0.163,0.151,1.442,-28.015,245.850,-66.284
-0.079,-0.004,1.264,-65.552,237.915,-35.950
0.023,0.023,1.162,-112.915,249.512,-49.500
0.130,-0.010,0.984,-122.498,279.724,-58.350
0.098,-0.106,0.676,-101.929,278.992,-45.044
0.364,-0.063,0.626,-72.815,258.057,-30.090
0.358,0.002,0.393,-48.401,226.685,-9.399
0.409,-0.005,0.133,-65.247,136.414,-15.564
0.493,0.074,0.040,-48.035,92.773,2.380
0.490,0.093,-0.077,-20.935,65.796,8.057
0.520,0.121,-0.124,2.686,53.406,3.662
0.507,0.184,-0.176,16.968,21.362,5.920
0.555,0.232,-0.055,19.287,-41.931,2.441
0.605,0.222,0.161,16.113,-84.717,6.165
0.532,0.167,0.200,29.236,-115.479,9.277
0.428,0.117,0.264,40.955,-151.978,9.583
0.445,0.107,0.526,50.354,-174.133,16.235
0.404,0.181,0.755,55.908,-162.964,16.113
0.375,0.155,0.834,53.101,-191.772,46.753
0.307,0.065,1.032,83.435,-215.820,-23.499
0.448,0.133,1.315,76.904,-192.993,21.790
0.378,0.214,1.313,56.213,-136.780,32.776
0.257,0.178,1.216,55.542,-114.929,-3.052
0.159,0.065,1.180,58.350,-118.103,-16.724
0.223,-0.028,1.348,44.922,-103.699,4.883
0.291,0.065,1.468,32.715,-53.406,27.161
0.160,0.104,1.323,28.931,-21.667,-0.061
0.128,0.057,1.203,15.442,-17.029,-9.644
0.162,0.017,1.191,10.986,-6.531,1.221
0.107,0.047,1.144,12.878,-2.991,2.014
0.099,0.011,1.096,2.991,-3.540,1.465
0.114,0.005,1.102,-5.005,2.991,13.672
0.069,-0.014,1.045,-2.808,8.850,11.414
0.088,-0.031,1.035,-0.854,4.456,8.240
0.120,0.004,1.058,-5.127,5.981,13.062
0.101,0.006,1.004,-4.395,15.442,4.578
0.083,-0.017,0.951,-1.343,11.597,3.784
0.101,-0.034,0.958,2.930,4.456,4.761
0.118,-0.001,0.987,3.418,6.042,1.892
0.100,-0.000,0.966,-0.793,6.226,1.648
0.104,-0.009,0.973,-1.587,-1.099,2.747
0.118,-0.001,1.019,0.244,-1.343,2.075
0.123,0.009,1.020,-0.793,5.188,0.793
0.114,0.009,1.001,-1.648,3.845,-1.343
0.118,0.003,1.003,-1.953,-2.136,-2.441
0.124,0.006,1.021,-3.906,-1.526,1.648

0.148,-0.034,1.066,11.047,16.052,2.075
0.163,-0.038,1.098,7.263,14.099,2.563
0.207,-0.021,1.189,-1.160,0.305,-0.244
0.226,-0.044,1.285,-6.531,-4.333,9.949
0.326,-0.005,1.584,-5.676,23.193,27.100
0.278,0.093,1.578,-6.653,63.660,13.306
0.364,0.034,1.633,-41.504,92.163,6.531
0.372,0.014,1.669,-66.589,140.198,16.113
0.373,0.043,1.645,-78.918,209.534,-0.061
0.282,0.081,1.451,-86.426,246.460,-7.874
0.331,-0.014,1.332,-117.065,295.166,-1.221
0.229,0.031,0.903,-98.145,342.529,-8.545
0.209,0.006,0.354,-85.632,308.472,-33.630
0.361,-0.027,0.158,-108.459,233.765,-0.732
0.414,-0.016,0.002,-84.656,160.706,9.460
0.430,-0.047,-0.184,-61.646,92.224,13.855
0.424,-0.022,-0.317,-37.659,84.595,14.160
0.377,0.024,-0.448,-10.437,63.965,7.629
0.311,0.092,-0.512,9.583,-1.892,-5.310
0.389,0.069,-0.349,23.621,-86.121,-11.902
0.362,0.127,-0.109,45.837,-159.851,14.832
0.299,0.153,0.090,64.087,-225.952,27.832
0.241,0.083,0.362,70.618,-278.503,14.465
0.302,0.071,0.650,76.172,-297.241,15.381
0.208,0.101,0.852,90.576,-271.362,9.277
0.551,0.055,1.415,96.741,-249.207,57.678
0.485,0.127,1.442,116.516,-214.294,-15.869
0.322,0.067,1.188,119.690,-184.998,-28.687
0.200,0.049,1.150,46.875,-174.438,1.526
0.184,0.071,1.342,17.090,-138.672,3.479
0.228,-0.082,1.366,22.278,-104.370,9.094
0.099,-0.021,1.295,29.846,-98.633,21.057
-0.037,0.072,1.328,24.719,-65.002,10.315
0.074,0.063,1.605,4.333,-41.809,35.522
0.256,0.093,2.021,2.808,38.330,61.646
-0.015,0.150,1.836,-1.282,58.533,30.273
0.169,0.029,1.867,-57.312,76.904,14.587
0.187,0.012,1.924,-78.430,147.644,31.799
0.168,0.111,1.741,-85.388,239.075,3.296
0.129,-0.004,1.398,-113.220,262.207,-8.728
0.152,-0.085,1.057,-145.142,267.944,20.630
0.269,0.058,0.842,-140.686,314.392,-1.831
0.293,0.111,0.585,-124.817,311.523,-20.142
0.315,0.074,0.301,-114.197,251.282,-23.926
0.357,0.047,0.064,-85.754,180.969,-8.606
0.349,0.050,-0.177,-54.626,129.089,-10.803
0.333,0.069,-0.339,-39.856,74.585,-7.690
0.290,0.143,-0.421,-14.099,13.062,-31.982
0.341,0.132,-0.282,15.930,-63.782,-42.908
0.327,0.095,-0.160,43.762,-132.690,-7.385
0.248,0.124,0.017,42.664,-216.248,17.334
0.179,0.127,0.222,52.063,-267.029,0.427
0.375,0.124,0.739,78.613,-253.174,9.766
0.486,0.202,0.994,93.201,-209.900,16.968
0.302,0.235,0.878,59.998,-187.134,14.832
0.216,0.232,1.004,18.860,-218.689,45.532
0.278,0.120,1.248,24.231,-199.829,-5.859
0.302,0.104,1.260,79.041,-162.048,-5.005
0.164,0.260,1.266,37.842,-148.071,28.015
0.213,0.206,1.492,18.188,-119.568,28.503
0.296,0.229,1.633,43.274,-84.534,14.160
0.190,0.275,1.582,31.555,-46.265,8.728
0.203,0.223,1.691,13.367,-15.137,-0.977
0.261,0.218,1.801,-11.292,40.222,-4.395
0.190,0.231,1.704,-21.973,93.323,-16.541
0.165,0.215,1.564,-25.330,125.305,-19.897
0.209,0.164,1.507,-42.847,159.363,-21.240
0.232,0.133,1.372,-51.636,199.341,-23.376
0.137,0.134,1.075,-45.471,223.572,-38.086
0.188,0.116,0.870,-51.331,208.984,-28.992
0.309,0.052,0.799,-48.767,183.472,-28.076
0.378,0.099,0.733,-32.593,181.824,-25.513
0.386,0.171,0.557,-37.781,183.838,-28.931
0.463,0.013,0.485,-68.909,191.589,-19.531
0.474,-0.002,0.300,-40.100,193.481,-8.179
0.422,0.025,0.060,-11.292,160.583,-4.456
0.530,0.027,0.060,-7.874,105.774,-0.916
0.574,-0.013,0.079,23.804,71.533,-5.859
0.523,-0.006,-0.015,54.382,45.837,-11.414
0.479,0.087,-0.177,63.538,4.578,-13.916
0.482,0.137,-0.274,56.091,-57.251,-17.090
0.430,0.159,-0.254,44.373,-121.155,-7.324
0.454,0.106,-0.161,62.561,-179.260,-10.559
0.370,0.111,-0.014,89.539,-238.403,-15.442
0.264,0.126,0.282,75.684,-288.452,-27.527
0.421,0.103,0.962,59.326,-292.969,-27.161
0.668,0.121,1.349,57.251,-290.649,-4.028
0.513,0.116,1.354,66.956,-191.650,-29.968
0.389,0.018,1.380,37.048,-143.677,-40.527
0.471,-0.141,1.525,29.297,-118.225,-35.645
0.307,-0.077,1.286,73.181,-69.885,-16.235
0.254,-0.092,1.114,72.510,-72.510,-21.301
0.258,-0.214,0.990,98.267,-80.627,-36.133
0.218,-0.316,0.977,127.747,-56.152,-46.570
0.187,-0.370,1.309,108.948,-39.551,-14.832
0.216,-0.454,1.430,44.250,-3.479,-0.916
0.160,-0.284,1.398,35.645,40.100,18.494
0.064,-0.417,1.096,62.683,76.355,-36.987
0.024,-0.494,0.962,115.845,118.774,-50.232
0.159,-0.512,0.851,125.305,99.792,-28.015
0.239,-0.478,0.887,118.896,75.378,-39.063
0.213,-0.560,0.698,137.634,95.520,-56.458
0.170,-0.640,0.531,159.668,118.835,-43.396
0.295,-0.610,0.410,178.162,145.813,-29.907
0.393,-0.674,0.422,97.107,132.751,-36.865
0.387,-0.679,0.426,63.416,83.801,-46.387
0.244,-0.729,0.240,77.209,0.916,-63.721
0.257,-1.057,0.330,80.444,-46.631,-50.232
0.382,-0.936,0.599,90.515,-17.822,-27.893
0.353,-1.120,0.361,84.595,-14.648,-44.189
0.410,-1.106,0.446,40.100,-11.780,-50.110
0.270,-1.198,0.306,-2.319,0.671,33.875
0.197,-1.006,0.211,-52.490,-36.621,80.322
0.313,-0.937,0.471,-31.067,-36.682,86.426
0.410,-0.834,0.483,34.912,-9.460,77.271
0.311,-0.788,0.354,38.696,-23.987,36.560
0.237,-0.735,0.193,47.424,-45.227,33.325
0.292,-0.793,0.261,28.381,-81.604,46.082
0.253,-0.928,0.333,50.842,-83.984,48.523
0.485,-0.719,0.269,67.810,-26.733,-4.578
0.319,-0.859,0.387,32.410,26.367,-22.522
0.387,-0.832,0.152,66.833,31.372,12.085
0.057,-0.937,0.213,159.912,-36.682,17.090
0.298,-0.744,0.370,331.726,133.179,65.918
1.055,-1.019,-0.433,161.743,127.441,89.783

0.257,-1.007,-0.185,12.085,-31.372,-1.038
0.278,-0.947,-0.308,8.606,-15.930,-30.884
0.176,-0.931,-0.280,7.202,2.563,-16.602
0.262,-0.957,-0.289,-6.226,8.484,11.780
0.170,-0.897,-0.264,-8.728,5.920,12.146
0.187,-0.912,-0.257,-5.066,9.277,-9.399
0.257,-0.952,-0.231,-6.226,6.897,-0.610
0.235,-0.966,-0.243,1.709,-6.470,5.371
0.185,-0.883,-0.256,-2.625,-4.517,-8.911
0.228,-0.903,-0.291,0.549,6.897,-11.353
0.193,-0.920,-0.235,6.958,15.869,-9.888
0.198,-0.855,-0.252,2.808,-6.836,-41.748
0.197,-0.929,-0.318,-3.174,-16.296,-42.114
0.354,-1.198,-0.285,-18.677,-19.897,-20.264
0.412,-1.319,-0.188,-20.020,-24.536,-3.418
0.462,-1.612,-0.066,-32.043,-32.593,8.484
0.547,-1.795,-0.128,-38.696,-32.898,55.908
0.390,-1.684,-0.129,-56.885,-21.484,123.596
0.365,-1.559,-0.348,-98.999,-7.690,172.302
0.368,-1.536,-0.321,-148.865,-31.677,225.830
0.345,-1.381,0.007,-232.849,-74.646,273.804
0.256,-1.010,-0.066,-200.500,-60.852,303.772
0.181,-0.533,0.109,-211.426,-68.848,289.612
0.287,-0.547,-0.104,-157.654,30.823,275.452
0.321,-0.399,0.268,-154.785,55.054,287.842
0.292,-0.146,-0.133,-85.937,69.336,231.018
0.368,0.225,0.050,-88.989,52.612,194.824
0.346,0.495,-0.012,-52.856,61.279,155.640
0.397,0.631,-0.150,-49.255,18.616,90.820
0.432,0.643,-0.171,3.906,9.766,21.912
0.410,0.685,-0.108,56.213,-11.353,-55.969
0.407,0.761,-0.174,33.875,-67.383,-130.432
0.367,0.211,0.279,22.095,-111.206,-203.918
0.462,0.041,0.261,77.454,-58.472,-258.118
0.276,-0.062,0.165,135.864,-34.119,-318.909
0.203,-0.315,0.052,139.099,-43.701,-337.952
0.066,-0.912,0.350,72.205,-115.417,-376.526
0.333,-1.201,0.359,180.664,-23.071,-329.224
0.256,-1.255,0.095,228.760,-59.448,-318.481
-0.016,-1.303,0.114,190.735,-68.054,-288.452
-0.102,-1.224,0.047,179.382,-56.824,-275.818
-0.235,-1.525,-0.028,172.058,65.857,-193.604
-0.078,-1.448,-0.302,65.186,31.006,-150.757
-0.198,-1.598,-0.135,21.484,-1.282,-125.000
-0.036,-2.077,-0.133,-31.311,-26.672,-76.233
-0.088,-2.113,0.154,2.502,-17.700,13.306
-0.054,-1.992,0.251,-15.259,5.493,76.050
0.057,-1.988,0.119,-61.951,14.282,141.724
-0.108,-1.785,-0.104,-87.646,20.081,242.065
-0.160,-1.529,-0.158,-84.290,-10.437,273.071
0.057,-1.511,0.053,-70.313,-1.160,294.006
0.114,-1.403,-0.035,-138.184,19.165,365.662
-0.070,-0.747,0.006,-155.640,37.781,420.288
0.149,-0.567,-0.197,-86.853,59.937,333.435
0.510,-0.563,-0.196,-263.000,-6.409,341.919
0.120,-0.212,0.471,-286.987,10.132,324.341
0.129,0.241,0.395,-79.163,90.942,236.999
0.371,0.326,-0.177,-70.557,80.383,201.599
0.394,0.436,-0.167,-40.894,51.270,138.306
0.395,0.518,-0.215,-30.396,16.052,68.176
0.399,0.647,-0.161,27.466,27.466,14.221
0.470,0.653,-0.230,17.578,-41.199,-38.330
0.455,0.581,0.103,25.146,-59.265,-93.506
0.482,0.426,0.173,56.763,-48.218,-153.381
0.565,0.188,0.086,83.679,-43.213,-201.294
0.370,0.139,0.126,83.557,-71.289,-248.474
0.385,-0.221,0.178,68.787,-89.416,-280.518
0.300,-0.686,0.413,111.877,-75.928,-285.278
0.206,-0.693,0.213,324.402,18.494,-274.475
0.311,-1.018,-0.347,238.342,53.162,-349.426
0.523,-1.762,-0.168,128.418,-36.682,-370.483
0.272,-1.364,-0.059,187.866,-44.434,-224.915
-0.021,-1.225,-0.011,112.671,-33.081,-210.388
0.127,-1.282,-0.137,83.130,15.564,-211.426
0.134,-1.582,-0.364,113.586,49.011,-177.063
0.029,-1.458,-0.293,85.205,15.381,-135.254
-0.080,-1.351,-0.159,21.057,-10.437,-124.756
-0.033,-1.473,-0.135,36.926,13.794,-97.107
-0.006,-1.727,-0.321,1.831,16.357,-48.889
0.077,-1.928,-0.253,-24.231,-19.165,22.766
-0.096,-1.684,-0.042,-61.401,-32.471,93.140
-0.083,-1.622,-0.099,-87.891,-26.794,125.183
0.026,-1.726,-0.127,-100.830,-12.939,173.157
0.046,-1.751,-0.211,-101.929,-6.165,237.732
-0.091,-1.469,-0.248,-122.375,-17.944,269.592
0.090,-1.305,-0.363,-115.295,-18.555,282.288
0.116,-1.370,-0.309,-172.546,-36.377,352.600
0.004,-0.689,0.186,-199.646,-36.438,360.962
0.147,-0.462,0.250,-148.376,29.053,319.885
0.301,-0.252,-0.080,-115.234,32.959,282.349
0.334,-0.125,0.097,-99.365,14.160,269.592
0.361,0.156,0.206,-93.872,15.564,244.873
0.355,0.434,0.083,-49.500,33.691,167.664
0.489,0.328,0.085,-34.729,2.686,127.747
0.423,0.497,0.141,-14.893,20.508,105.103
0.479,0.573,-0.027,6.226,18.005,35.461
0.471,0.611,0.085,16.785,-13.000,-28.137
0.503,0.518,0.168,24.658,-15.747,-97.351
0.515,0.338,0.116,52.368,-10.559,-143.921
0.447,0.128,0.163,66.162,-20.081,-201.355
0.404,-0.018,0.160,93.079,-6.287,-254.211
0.276,-0.216,0.028,111.511,-8.606,-297.119
0.050,-0.457,0.097,62.134,-90.271,-366.699
0.272,-0.979,0.374,130.676,-36.865,-362.427
0.604,-1.812,-0.404,300.720,128.113,-293.274
0.290,-1.300,0.155,167.358,65.552,-277.222
0.071,-1.360,0.112,88.806,14.160,-211.182
0.318,-1.581,-0.380,4.150,37.109,-160.461
0.467,-1.827,-0.280,55.054,-11.353,-101.929
0.227,-1.433,-0.091,129.150,12.695,-26.184
0.167,-1.196,-0.066,42.175,6.104,-20.081
0.189,-1.134,-0.157,-1.343,1.953,-28.137
0.178,-1.116,-0.119,7.019,15.991,-29.541
0.284,-1.339,-0.217,44.922,23.437,-3.845
0.197,-1.174,-0.115,0.732,-0.366,18.799
0.113,-1.025,-0.189,-13.855,1.221,14.099
0.135,-0.970,-0.204,-1.892,-1.465,3.479
0.115,-0.971,-0.200,13.367,-0.183,3.479
0.099,-0.899,-0.180,-1.709,-2.319,-1.831
0.101,-0.922,-0.218,-3.662,2.075,0.122
0.125,-0.954,-0.222,5.005,-2.380,6.470
0.107,-0.887,-0.174,7.507,-2.258,10.193
0.084,-0.876,-0.161,-0.183,-1.648,0.793
0.133,-0.969,-0.167,-1.404,2.075,-7.935
0.156,-1.030,-0.204,4.272,4.333,3.479

0.055,-0.965,-0.221,2.258,-1.282,-4.150
0.012,-0.933,-0.210,0.671,-1.038,-0.977
0.017,-0.939,-0.207,1.038,-0.061,-8.667
0.001,-0.941,-0.223,0.977,0.122,-20.691
-0.011,-0.945,-0.233,8.545,-1.526,-25.085
-0.028,-0.942,-0.216,4.639,-3.235,-34.912
0.021,-1.002,-0.261,-3.784,-4.211,-38.757
0.005,-1.101,-0.219,-3.113,-7.935,-23.987
0.021,-1.142,-0.232,-2.686,-12.268,-8.789
-0.012,-1.114,-0.185,-21.912,-33.813,-4.211
-0.013,-1.191,-0.140,-22.766,-26.794,-5.310
0.052,-1.353,-0.147,-5.310,-14.954,15.259
0.071,-1.493,-0.195,-8.850,-24.841,44.495
0.067,-1.552,-0.155,-34.973,-32.043,76.721
0.027,-1.601,-0.101,-77.209,-19.836,118.896
0.061,-1.544,-0.098,-107.788,-9.460,148.193
0.104,-1.507,-0.225,-98.755,-5.920,185.852
0.105,-1.518,-0.208,-96.436,-4.700,246.826
0.108,-1.332,-0.146,-126.709,2.319,306.519
0.153,-1.100,-0.083,-85.937,11.719,348.816
0.216,-0.980,0.029,-43.640,26.245,386.475
0.088,-0.664,0.125,-25.879,29.602,425.781
0.052,0.004,0.046,-34.851,20.264,415.344
0.180,0.435,-0.090,-53.162,-3.052,324.829
0.200,0.627,-0.061,-10.620,-11.169,226.135
0.292,0.797,0.017,13.733,13.000,119.934
0.327,0.732,-0.052,30.029,18.982,40.344
0.344,0.847,-0.041,19.348,-8.728,-30.884
0.295,0.758,0.064,11.047,-39.551,-128.784
0.404,0.387,0.019,8.789,-25.879,-223.389
0.351,0.091,0.254,-53.772,-93.079,-288.269
0.195,-0.148,0.169,90.454,-9.155,-316.895
0.046,-0.138,0.060,109.863,37.842,-371.948
-0.050,-0.643,0.122,80.811,9.888,-447.815
0.212,-2.053,-0.635,190.430,80.322,-386.536
0.175,-1.207,-0.116,145.813,28.992,-283.264
-0.319,-0.967,-0.211,124.878,49.011,-266.724
-0.415,-1.088,-0.222,0.732,14.465,-345.703
-0.215,-1.901,-0.651,16.541,28.931,-286.072
-0.059,-2.009,-0.591,133.484,-48.462,-197.510
-0.269,-1.750,-0.125,92.102,-37.964,-117.371
-0.358,-1.566,-0.004,-16.846,-19.226,-85.937
-0.116,-1.773,-0.280,11.963,-9.827,-1.465
-0.174,-1.986,-0.217,-59.998,-7.324,7.935
-0.189,-1.904,-0.023,-26.733,-9.338,96.252
-0.216,-1.815,-0.139,-62.805,13.916,174.499
-0.244,-1.659,-0.244,-76.355,9.644,233.704
-0.217,-1.602,-0.243,-102.783,-6.836,289.795
-0.238,-1.336,-0.167,-139.343,3.601,297.791
-0.117,-1.164,-0.308,-114.441,35.522,315.857
0.050,-1.028,-0.128,-103.088,32.166,346.130
0.054,-0.712,-0.078,-135.864,-14.343,361.328
0.129,-0.391,-0.095,-106.201,-1.160,302.063
0.311,-0.281,-0.108,-81.482,-0.671,286.926
0.298,0.079,-0.107,-82.031,-21.484,258.484
0.266,0.383,0.055,-99.243,-53.467,177.185
0.408,0.490,-0.007,-40.894,-2.563,88.989
0.452,0.487,0.006,-4.517,0.305,23.254
0.485,0.438,0.016,3.357,-19.775,-46.448
0.503,0.288,0.115,11.597,-40.344,-117.432
0.497,0.077,0.201,36.072,-28.137,-175.598
0.407,-0.172,0.208,43.457,-20.874,-236.450
0.357,-0.321,-0.072,73.303,-12.756,-282.654
0.187,-0.515,-0.122,119.446,-38.635,-307.373
0.084,-0.853,0.156,131.165,-35.828,-338.867
0.127,-1.215,0.093,134.705,-13.977,-352.295
0.103,-1.537,-0.408,196.716,6.348,-316.040
0.000,-1.335,-0.025,107.849,-17.517,-192.749
-0.196,-1.305,0.053,91.675,-17.151,-189.819
-0.253,-1.335,0.054,56.702,6.531,-167.480
-0.159,-1.491,-0.141,41.199,33.142,-131.897
-0.136,-1.563,-0.400,50.049,-19.226,-94.971
-0.197,-1.379,-0.070,34.729,-32.715,-64.270
-0.386,-1.332,-0.018,17.395,-21.057,-59.143
-0.145,-1.776,-0.080,9.460,-4.822,-22.339
-0.127,-1.928,-0.041,-7.080,-2.808,69.092
-0.274,-1.659,0.023,-65.002,-5.127,111.450
-0.250,-1.553,-0.090,-71.472,24.414,147.278
-0.178,-1.472,-0.097,-67.505,24.048,177.917
-0.198,-1.344,-0.102,-104.919,12.146,182.068
-0.074,-1.430,-0.266,-100.891,20.752,201.965
-0.041,-1.461,-0.283,-97.534,14.343,252.686
-0.043,-1.438,-0.115,-119.446,5.554,330.688
-0.039,-1.160,-0.182,-96.741,-6.042,416.443
0.055,-0.791,0.053,-95.154,4.150,437.744
0.060,-0.317,-0.176,-87.708,5.188,404.663
0.156,0.181,-0.049,-71.716,-32.043,341.919
0.202,0.330,0.254,-29.236,-24.170,273.804
0.292,0.664,0.255,-41.626,-5.005,181.091
0.382,0.721,0.172,-22.522,-3.052,90.515
0.432,0.744,0.281,-6.348,-3.418,22.278
0.393,0.740,0.265,16.296,5.798,-44.861
0.361,0.689,0.196,34.729,14.343,-123.840
0.120,0.727,0.142,42.053,8.240,-244.202
-0.077,0.166,0.066,56.702,-5.798,-396.912
-0.172,-0.432,-0.121,108.459,9.644,-462.952
-0.236,-0.627,-0.315,151.794,31.006,-499.268
-0.230,-1.243,-0.429,145.386,-12.451,-483.948
0.315,-2.110,-0.427,163.513,-68.542,-341.003
-0.059,-1.595,0.053,158.569,-30.884,-213.928
-0.346,-1.254,0.025,48.279,14.221,-205.627
-0.236,-1.579,-0.328,40.039,15.259,-195.068
0.026,-1.929,-0.454,76.538,-7.141,-113.586
-0.215,-1.627,-0.145,60.425,-23.499,-57.617
-0.288,-1.382,-0.023,8.789,-13.428,-54.687
-0.191,-1.544,-0.056,-4.089,5.066,-31.860
-0.022,-1.845,-0.058,-10.010,16.907,42.419
-0.119,-1.744,-0.013,-36.682,14.221,98.206
-0.149,-1.620,-0.126,-79.468,15.625,146.545
-0.067,-1.510,-0.206,-71.533,17.456,199.402
-0.047,-1.506,-0.176,-43.701,23.254,264.221
-0.016,-1.399,-0.175,-78.796,7.446,315.308
0.018,-1.155,-0.232,-101.440,0.610,332.275
0.191,-0.994,-0.205,-111.267,2.075,315.186
0.286,-0.779,-0.018,-80.688,-3.662,322.876
0.207,-0.248,0.036,-67.322,-4.272,309.082
0.434,-0.124,0.053,-67.444,-15.991,241.699
0.455,0.034,0.078,-42.480,-17.273,198.181
0.549,0.135,0.096,-31.006,-11.597,139.832
0.545,0.194,0.218,-22.095,-12.695,93.994
0.561,0.342,0.058,-11.841,3.540,49.133
0.524,0.437,0.101,-10.986,-13.977,-14.282
0.524,0.326,0.167,8.667,-14.893,-95.703
0.478,0.265,0.241,27.405,3.479,-177.734
0.404,0.060,0.152,36.377,0.732,-279.846

0.047,-0.949,-0.127,2.991,9.399,-21.729
0.053,-0.962,-0.182,5.554,13.245,-30.884
0.037,-1.014,-0.157,10.376,7.996,-28.442
0.036,-1.054,-0.173,4.761,9.155,-24.597
0.004,-1.056,-0.187,-10.681,-3.906,-23.926
0.170,-1.306,-0.196,-14.465,-7.324,-11.841
0.151,-1.441,-0.121,-11.963,-1.587,56.946
0.016,-1.296,-0.062,-38.208,-33.203,74.097
0.203,-1.569,-0.127,-65.552,-41.626,77.332
0.304,-1.905,-0.037,-74.341,-54.260,158.569
0.057,-1.660,-0.045,-69.031,-29.785,236.145
0.262,-1.637,-0.179,-74.280,2.014,282.959
0.211,-1.488,-0.312,-116.333,13.672,363.464
0.209,-0.945,-0.011,-212.646,-47.546,412.781
0.234,-0.544,0.043,-172.913,-52.063,388.550
0.209,-0.103,0.041,-126.282,9.460,359.497
0.250,0.354,-0.034,-89.722,13.855,306.580
0.267,0.641,0.070,-90.515,-18.677,205.811
0.399,0.634,0.075,-75.623,-33.447,102.539
0.392,0.613,0.275,-27.161,-10.193,45.898
0.419,0.590,0.103,4.150,16.724,14.832
0.406,0.685,0.098,16.235,-5.249,-40.833
0.388,0.748,0.169,28.320,-25.269,-124.084
0.390,0.469,0.353,55.237,-12.146,-209.473
0.446,0.010,0.219,100.525,49.438,-220.825
0.356,0.084,-0.035,138.062,80.933,-270.081
0.316,-0.199,-0.053,139.832,53.650,-330.566
0.281,-1.015,-0.059,171.936,66.711,-302.673
0.293,-0.824,0.020,251.343,199.707,-255.188
0.336,-0.963,-0.598,12.451,43.579,-385.742
0.068,-1.320,-0.275,101.379,39.429,-335.571
0.405,-1.881,-0.561,83.130,31.189,-209.900
0.177,-1.545,-0.358,80.688,-0.916,-170.288
0.034,-1.342,-0.292,66.772,4.883,-138.000
-0.009,-1.399,-0.256,30.945,15.747,-139.404
0.149,-1.701,-0.584,16.907,28.503,-114.075
0.133,-1.653,-0.407,13.123,-15.320,-46.753
-0.040,-1.473,-0.287,4.395,-22.522,-2.563
0.174,-1.728,-0.384,-12.268,-9.094,32.654
0.219,-1.795,-0.352,-41.870,-28.442,130.737
0.008,-1.492,-0.231,-104.309,-45.532,207.520
0.074,-1.336,-0.450,-127.747,-46.570,228.760
0.152,-1.234,-0.339,-86.670,-74.341,263.672
0.170,-1.115,-0.265,-119.934,-46.692,334.045
0.325,-0.844,-0.278,-181.885,-54.993,348.877
0.352,-0.667,0.023,-170.837,-99.976,332.458
0.288,-0.254,0.024,-169.434,-86.731,297.668
0.316,-0.029,0.090,-124.573,-43.823,257.324
0.462,0.076,0.204,-89.416,-20.691,196.167
0.427,0.335,0.139,-87.341,-31.372,148.987
0.457,0.508,0.167,-53.955,-29.602,64.941
0.510,0.415,0.217,-2.075,1.587,12.268
0.530,0.405,0.204,11.230,-0.610,-32.776
0.537,0.367,0.209,27.649,-11.719,-80.139
0.542,0.233,0.342,51.758,2.930,-131.653
0.486,0.151,0.340,94.238,36.133,-196.350
0.389,-0.003,0.171,130.615,61.646,-259.827
0.237,-0.273,0.054,185.791,100.830,-310.669
0.196,-0.677,-0.056,179.993,112.366,-344.299
0.205,-1.005,-0.329,161.133,80.811,-396.301
0.350,-1.357,-0.167,89.783,49.133,-353.027
0.452,-2.077,-0.384,135.742,39.795,-250.305
0.139,-1.240,-0.193,34.363,22.705,-72.083
0.150,-1.262,-0.145,50.842,46.570,-93.689
0.198,-1.257,-0.112,72.144,82.153,-78.918
0.084,-1.335,-0.355,146.545,132.263,-62.561
0.178,-1.425,-0.463,22.949,88.623,-76.965
0.315,-1.486,-0.431,15.625,80.566,-74.890
0.202,-1.585,-0.534,7.690,51.331,-39.429
-0.010,-1.562,-0.284,-95.459,-24.963,27.466
0.034,-1.253,-0.341,-93.933,-7.874,95.276
0.135,-1.254,-0.402,-81.726,-1.099,97.595
0.128,-1.438,-0.248,-55.237,-10.010,118.103
0.007,-1.371,-0.120,-99.976,-9.399,181.335
-0.040,-1.245,-0.258,-62.988,36.987,227.600
0.146,-1.086,-0.342,-56.824,14.465,231.079
0.365,-1.224,-0.101,-44.006,29.724,297.729
0.536,-0.649,-0.596,-154.053,-34.302,268.005
-0.160,-0.869,0.096,-129.761,-154.419,154.663
0.308,-0.299,0.554,-29.785,43.640,316.833
0.469,0.121,-0.179,-29.480,-14.771,208.679
0.545,0.169,0.024,-49.255,-72.388,141.113
0.549,0.191,0.301,-22.278,-84.656,97.595
0.510,0.333,0.268,17.883,-19.775,58.289
0.536,0.637,-0.083,17.029,-6.958,-34.485
0.527,0.333,0.180,38.025,-24.902,-86.182
0.446,0.149,0.347,60.974,-15.686,-135.620
0.381,0.089,0.001,57.068,15.015,-235.168
0.139,-0.423,-0.050,61.523,-75.989,-349.365
0.232,-1.094,0.358,70.557,-71.716,-317.505
-0.063,-0.656,-0.004,93.628,1.831,-276.917
-0.203,-0.898,-0.199,132.629,-11.230,-357.361
-0.237,-1.511,0.024,83.862,-45.044,-384.094
0.169,-2.363,-0.064,141.113,-20.325,-245.361
-0.184,-1.604,-0.197,147.278,24.353,-82.703
-0.291,-1.102,-0.060,27.344,-26.306,-89.355
-0.351,-1.117,-0.027,19.531,-17.212,-114.075
-0.123,-1.614,-0.146,28.259,-3.235,-116.516
-0.177,-1.739,0.132,20.569,-19.104,-52.002
-0.194,-1.841,0.065,-30.396,-9.399,12.085
-0.160,-1.853,-0.001,-52.795,-13.672,85.999
-0.223,-1.778,-0.036,-22.278,-5.554,166.382
-0.204,-1.717,0.012,-53.650,-18.188,231.262
-0.088,-1.786,-0.011,-64.392,24.048,330.017
-0.140,-1.575,-0.361,-37.292,-10.437,376.648
-0.167,-1.318,-0.046,-60.669,-39.063,395.508
-0.081,-1.042,-0.175,-77.759,-19.592,377.930
0.067,-0.735,-0.190,-55.481,-27.527,378.052
0.209,-0.225,-0.068,-73.853,-45.410,324.829
0.327,-0.156,-0.041,-71.899,-70.618,293.213
0.356,0.130,0.195,-73.059,-60.425,233.765
0.396,0.433,0.065,-36.072,-52.612,179.199
0.490,0.389,0.177,-26.855,-44.678,149.109
0.401,0.701,0.357,-51.697,-38.879,94.971
0.430,0.799,0.274,-3.845,-8.484,34.668
0.397,0.918,0.263,38.025,14.526,-42.175
0.454,0.664,0.309,10.803,13.000,-127.441
0.421,0.406,0.346,10.559,12.939,-191.528
0.265,0.306,0.273,39.612,-20.752,-244.202
0.242,-0.115,-0.171,189.087,23.804,-332.520
0.158,-0.384,0.206,136.597,27.832,-362.427
0.027,-0.930,0.122,77.637,13.916,-371.399
0.294,-1.649,-0.382,114.136,18.188,-347.229
0.222,-1.276,-0.197,105.896,3.052,-259.583
-0.209,-1.042,0.020,105.957,8.667,-260.864

0.019,-0.995,-0.059,-0.244,3.479,-0.305
0.018,-0.975,-0.093,-2.502,-0.305,-3.906
0.027,-0.987,-0.077,6.958,4.517,-4.639
0.043,-1.020,-0.095,10.681,2.625,-0.977
0.010,-0.994,-0.048,4.517,2.319,0.244
0.016,-0.961,-0.087,-3.845,-0.732,-7.446
0.017,-0.990,-0.076,-2.625,0.122,-9.277
0.022,-1.008,-0.074,-1.099,1.648,-7.080
0.029,-0.994,-0.095,-2.258,2.319,-8.972
0.002,-1.007,-0.078,-6.470,-0.977,-11.780
0.019,-1.041,-0.091,-6.836,-1.404,-12.024
0.010,-1.083,-0.033,-4.944,-6.775,-11.658
0.006,-1.075,-0.052,-4.456,-5.737,-8.972
0.001,-1.112,-0.059,-13.245,-8.728,-8.972
0.036,-1.220,-0.064,-19.897,-7.874,-2.258
0.053,-1.364,-0.006,-19.470,-13.977,14.465
0.094,-1.512,0.106,-15.808,-14.282,40.283
0.099,-1.505,0.083,-34.973,-8.301,72.571
0.098,-1.486,-0.041,-36.987,-3.601,103.271
0.142,-1.468,-0.089,-33.081,-0.244,134.583
0.163,-1.422,-0.017,-42.358,-5.127,169.617
0.147,-1.191,0.031,-73.547,1.282,192.749
0.294,-1.191,-0.023,-124.512,-0.671,202.209
0.341,-1.033,-0.007,-99.426,11.230,239.197
0.378,-0.915,-0.031,-105.347,25.757,262.268
0.461,-0.763,0.105,-157.959,-7.080,278.748
0.368,-0.459,0.125,-127.563,-15.503,239.685
0.395,-0.543,-0.064,-136.536,5.310,280.640
0.406,0.037,0.296,-186.035,5.798,285.034
0.350,0.254,0.130,-67.810,61.279,203.308
0.409,0.442,0.090,-33.020,39.978,151.672
0.364,0.490,0.164,-14.343,25.513,84.229
0.417,0.616,0.063,-21.729,-2.136,18.066
0.388,0.650,0.090,-16.235,-36.682,-48.584
0.372,0.625,0.237,-4.639,-50.781,-123.596
0.271,0.555,0.181,33.203,-71.655,-173.035
0.201,0.353,0.041,79.041,-74.219,-208.557
0.085,0.072,0.047,127.686,-73.364,-267.883
-0.072,-0.177,0.036,160.339,-39.001,-349.731
-0.327,-0.615,-0.040,198.181,-19.043,-415.649
-0.104,-1.470,-0.194,249.878,3.113,-466.980
-0.281,-1.823,-0.548,336.853,73.059,-404.053
-0.240,-1.480,-0.244,115.417,-3.357,-280.762
-0.377,-1.499,-0.220,106.384,-6.531,-282.837
-0.423,-1.619,-0.193,73.425,-4.578,-265.625
-0.385,-1.698,-0.245,64.880,2.991,-230.652
-0.363,-1.806,-0.180,-10.254,-31.677,-204.956
-0.478,-1.778,0.077,10.010,-56.396,-149.170
-0.589,-1.776,0.070,9.827,-18.005,-78.735
-0.552,-1.976,0.033,-3.052,20.203,-9.216
-0.372,-2.166,-0.116,-9.705,0.854,68.787
-0.572,-1.890,0.162,-48.279,-4.456,150.024
-0.557,-1.783,0.065,-74.890,34.546,218.689
-0.400,-1.946,-0.172,-89.294,39.246,317.383
-0.523,-1.929,-0.084,-88.928,20.752,413.086
-0.738,-1.505,0.128,-165.100,-16.174,370.483
-0.440,-1.137,-0.351,-157.288,30.151,403.503
-0.339,-1.066,-0.575,-207.397,0.488,495.117
0.046,-0.596,-0.151,-430.420,-57.800,464.661
-0.357,0.081,0.549,-133.484,61.462,355.103
0.239,0.330,-0.833,-85.388,81.726,241.821
0.338,0.286,-0.022,-44.006,21.301,179.443
0.280,0.396,0.187,1.831,73.303,153.381
0.344,0.644,-0.109,2.563,70.007,115.479
0.403,0.708,-0.083,0.061,3.357,43.823
0.473,0.557,0.146,13.733,-79.346,-37.598
0.502,0.413,0.178,72.876,-78.064,-76.172
0.486,0.393,0.281,46.692,-58.167,-121.521
0.407,0.348,0.312,53.894,-68.970,-157.410
0.247,0.302,0.245,96.680,-49.255,-233.337
0.095,0.001,0.114,175.537,-24.048,-302.490
-0.138,-0.197,0.147,192.322,-20.691,-390.991
-0.024,-1.397,-0.094,195.801,-6.104,-410.706
-0.155,-1.050,-0.058,185.913,-18.127,-335.632
-0.460,-1.143,0.158,162.964,19.043,-366.699
-0.279,-2.164,-0.794,235.107,62.439,-375.977
-0.149,-2.021,-0.068,91.248,-66.162,-264.893
-0.413,-1.513,0.087,88.074,-54.871,-177.307
-0.442,-1.386,-0.033,35.889,-35.278,-163.513
-0.493,-1.392,-0.066,48.035,-33.020,-155.457
-0.588,-1.422,0.000,44.006,-27.832,-156.677
-0.409,-1.861,0.091,-58.105,-52.673,-122.253
-0.449,-1.979,0.291,-53.833,-41.016,-24.902
-0.472,-1.827,0.202,-13.794,20.691,69.092
-0.469,-1.904,0.168,-26.917,51.758,154.602
-0.452,-2.074,0.222,-102.478,44.678,237.732
-0.661,-1.698,0.070,-171.204,67.383,294.312
-0.541,-1.579,-0.232,-136.658,85.632,356.934
-0.441,-1.528,-0.214,-72.388,67.444,397.583
-0.368,-1.377,0.028,-113.220,54.871,395.081
-0.211,-1.005,0.040,-130.188,49.561,394.958
-0.051,-0.787,-0.033,-81.421,46.936,391.113
0.062,-0.547,-0.045,-49.500,62.134,374.817
0.119,-0.162,-0.064,-67.383,33.264,358.093
0.162,0.200,-0.060,-82.092,18.005,307.434
0.247,0.380,0.033,-34.485,23.132,252.197
0.309,0.648,0.032,-33.630,34.790,188.049
0.362,0.685,0.013,-13.733,10.864,113.831
0.297,0.815,0.097,25.635,-13.367,59.021
0.301,0.932,0.113,40.771,-19.836,-10.559
0.284,0.916,0.189,39.063,-20.630,-98.450
0.253,0.716,0.273,42.542,-16.479,-181.030
0.142,0.531,0.223,77.637,0.305,-263.855
-0.127,0.382,0.075,93.872,-1.709,-385.010
-0.508,-0.145,-0.076,106.750,6.104,-524.719
-0.702,-0.841,-0.437,178.894,-0.366,-593.506
-0.274,-1.956,-0.531,174.866,-47.607,-514.771
-0.544,-1.513,-0.126,129.639,-39.917,-423.828
-0.654,-1.461,-0.355,85.144,-1.953,-386.353
-0.419,-2.036,-0.407,71.655,-56.213,-313.904
-0.515,-1.853,-0.040,62.683,-84.473,-213.196
-0.659,-1.513,0.058,54.199,-38.635,-171.814
-0.677,-1.411,-0.006,33.508,-4.761,-142.700
-0.567,-1.655,-0.098,13.550,-13.611,-102.051
-0.545,-1.854,0.065,9.094,-30.518,-24.414
-0.723,-1.551,0.069,5.615,5.676,36.377
-0.583,-1.686,-0.016,-13.123,22.766,69.153
-0.419,-1.848,-0.080,-18.860,48.218,156.799
-0.646,-1.655,0.070,-21.118,57.007,247.009
-0.637,-1.446,-0.169,-121.460,30.273,261.597
-0.383,-1.590,-0.292,-135.681,67.261,311.890
-0.470,-1.246,-0.103,-93.750,76.538,367.554
-0.262,-1.200,-0.247,-143.433,67.871,353.821
-0.044,-1.219,-0.171,-144.531,36.377,383.850
-0.161,-0.757,0.006,-53.955,27.893,395.996

-0.259,-0.887,-0.217,4.517,-0.122,-18.921
-0.255,-0.968,-0.173,6.897,-4.456,-17.395
-0.275,-0.942,-0.151,-5.066,-0.549,-9.949
-0.290,-0.920,-0.233,-6.287,3.601,-7.202
-0.309,-0.915,-0.202,3.418,-1.099,-7.751
-0.308,-0.912,-0.198,6.531,2.136,-10.498
-0.342,-0.890,-0.215,2.563,2.563,-11.108
-0.332,-0.923,-0.190,-3.113,1.587,-16.174
-0.359,-0.913,-0.236,-1.770,-2.014,-25.146
-0.349,-0.935,-0.179,-0.488,-8.118,-25.330
-0.337,-0.908,-0.165,-7.263,0.854,-25.940
-0.350,-0.927,-0.220,-2.136,0.854,-21.912
-0.334,-0.999,-0.248,-4.944,-4.272,-15.137
-0.394,-1.127,-0.193,-20.081,-10.864,-8.789
-0.458,-1.323,-0.149,-30.273,-9.949,-0.427
-0.365,-1.720,-0.120,-40.588,-9.155,40.527
-0.385,-1.983,0.060,-79.895,6.653,113.892
-0.431,-1.893,-0.066,-119.080,15.686,158.630
-0.441,-1.704,-0.183,-159.119,12.451,200.195
-0.380,-1.477,-0.242,-139.526,18.188,234.741
-0.277,-1.494,-0.202,-90.454,17.639,284.058
-0.323,-1.284,-0.044,-139.465,16.907,325.134
-0.158,-1.120,-0.020,-149.414,34.180,350.403
-0.131,-0.899,0.028,-104.187,35.095,378.784
-0.155,-0.266,-0.010,-91.125,45.837,371.948
0.162,-0.285,-0.010,-74.951,26.489,336.243
0.118,0.104,0.202,-49.683,29.846,324.890
0.248,0.323,0.139,-58.716,19.104,265.137
0.213,0.712,0.128,-29.785,35.767,203.552
0.317,0.874,0.073,13.672,34.241,103.516
0.370,0.840,0.099,42.969,16.418,15.381
0.434,0.813,0.184,25.696,6.592,-72.510
0.409,0.736,0.218,19.592,-0.671,-149.353
0.267,0.656,0.185,72.083,7.996,-227.783
0.074,0.524,0.126,125.061,20.691,-319.519
-0.197,0.169,0.269,83.191,34.607,-436.584
-0.363,-0.570,-0.223,162.537,8.789,-492.187
-0.361,-1.198,-0.418,199.158,19.165,-455.261
-0.573,-1.452,-0.447,129.761,35.095,-400.330
-0.259,-2.022,-0.762,101.929,-8.179,-311.584
-0.476,-1.649,-0.332,124.268,-3.784,-235.718
-0.566,-1.361,-0.306,60.974,-1.587,-237.244
-0.646,-1.417,-0.264,39.368,18.616,-251.343
-0.348,-2.086,-0.608,47.119,16.418,-224.487
-0.426,-1.865,-0.085,40.405,-46.265,-129.150
-0.589,-1.630,0.028,-2.991,-13.672,-79.651
-0.529,-1.780,-0.152,-23.865,5.920,-54.321
-0.419,-1.888,-0.134,-11.108,0.977,-5.798
-0.524,-1.778,-0.045,-25.696,-0.793,66.467
-0.592,-1.770,-0.059,-74.707,16.785,119.080
-0.468,-2.007,-0.181,-124.329,32.043,179.199
-0.594,-1.833,-0.183,-146.606,28.015,267.029
-0.699,-1.419,-0.152,-151.733,28.687,299.927
-0.564,-1.353,-0.089,-160.461,52.429,307.190
-0.444,-1.225,-0.096,-145.508,83.008,352.539
-0.374,-0.863,-0.111,-136.963,82.642,384.766
-0.251,-0.611,-0.120,-96.313,84.045,381.897
-0.169,-0.368,-0.141,-65.002,68.237,380.249
-0.047,-0.023,-0.225,-37.537,41.931,353.516
0.074,0.170,-0.158,-15.015,5.554,287.598
0.173,0.493,0.044,-50.354,-4.944,197.632
0.345,0.521,-0.099,-18.616,-17.944,119.507
0.375,0.695,-0.041,15.320,-30.396,45.166
0.375,0.785,0.174,29.236,-26.123,-35.645
0.377,0.807,0.149,55.176,-16.602,-129.150
0.235,0.689,0.200,75.134,-15.991,-226.624
-0.040,0.468,0.166,108.337,-1.465,-346.252
-0.303,0.028,0.110,102.783,-7.324,-462.158
-0.502,-0.874,-0.284,136.108,-50.537,-527.344
-0.355,-1.632,-0.257,188.904,-65.430,-462.830
-0.760,-1.599,-0.123,154.419,-28.931,-417.114
-0.265,-2.292,-0.133,63.904,-46.570,-381.226
-0.519,-1.640,0.042,69.214,-55.542,-257.996
-0.764,-1.240,-0.005,40.222,-29.053,-218.872
-0.783,-1.514,-0.135,46.387,2.563,-216.736
-0.442,-1.963,-0.069,57.007,38.940,-173.157
-0.477,-1.795,0.136,-13.245,-49.438,-94.910
-0.678,-1.427,0.192,-9.277,-24.048,-34.729
-0.600,-1.592,0.128,15.137,6.104,-6.287
-0.461,-1.924,0.077,20.386,17.944,61.951
-0.656,-1.755,0.291,-19.165,24.231,148.010
-0.659,-1.707,0.245,-121.765,61.768,205.688
-0.523,-1.717,-0.150,-126.221,97.900,278.076
-0.731,-1.417,-0.035,-53.406,78.796,338.440
-0.531,-1.032,0.086,-106.445,25.024,301.697
-0.295,-1.072,-0.012,-100.281,54.260,336.304
-0.311,-0.819,-0.053,-37.781,72.388,366.638
-0.236,-0.205,-0.100,-46.265,98.633,306.274
0.059,0.094,-0.114,-37.842,65.918,203.735
0.330,0.021,-0.143,-34.485,32.471,123.474
0.474,-0.378,-0.129,-31.250,-21.301,142.822
0.546,-0.044,-0.070,-186.157,-155.884,149.658
0.347,0.445,0.394,-209.290,-208.313,33.203
0.334,0.266,0.480,25.024,-40.466,-36.133
0.526,-0.157,0.468,102.478,36.743,-85.022
0.658,-0.477,0.234,97.717,20.874,-84.656
0.472,-0.264,0.298,78.247,-42.297,-137.756
0.304,-0.268,0.266,94.238,-49.011,-172.180
0.170,-0.384,0.215,106.262,-26.184,-234.497
-0.097,-0.701,0.122,155.701,14.893,-309.204
0.107,-1.295,-0.117,152.893,16.724,-293.030
0.200,-1.638,0.037,110.718,-44.312,-238.586
-0.082,-1.420,0.424,85.144,-48.035,-139.893
-0.003,-1.416,0.200,130.798,41.321,-106.140
0.004,-1.470,-0.012,62.927,32.043,-72.510
0.045,-1.453,-0.128,41.443,13.916,-32.349
-0.068,-1.227,-0.002,44.006,-1.953,-4.578
-0.073,-1.190,0.010,43.152,3.174,-1.343
0.000,-1.227,-0.047,39.246,5.005,1.099
-0.005,-1.187,-0.046,31.311,1.831,19.714
-0.066,-1.064,-0.030,15.137,-1.282,28.137
-0.056,-0.998,-0.066,1.709,-2.747,17.761
-0.037,-0.984,-0.081,7.751,-0.488,9.766
0.005,-1.011,-0.093,12.451,1.343,16.052
-0.031,-0.969,-0.089,6.531,-0.854,18.677
-0.025,-0.954,-0.101,3.296,-2.380,15.381
-0.001,-0.990,-0.116,10.925,-0.366,17.700
0.018,-0.985,-0.099,14.648,-4.089,22.278
-0.008,-0.917,-0.084,13.489,0.000,17.639
0.028,-0.921,-0.099,9.033,1.404,7.935
0.046,-0.959,-0.122,0.732,3.906,5.859
0.039,-0.971,-0.160,4.211,1.099,6.836
0.018,-0.939,-0.132,8.240,-0.793,3.784
0.048,-0.989,-0.126,7.202,1.770,-0.793
0.074,-1.040,-0.200,11.047,0.122,6.714

-0.196,-0.279,0.884,-2.747,4.028,-4.700
-0.206,-0.268,0.910,0.122,2.502,-3.723
-0.232,-0.275,0.918,2.075,-3.540,-0.427
-0.207,-0.314,0.907,2.747,-5.981,-1.648
-0.204,-0.306,0.943,3.418,-7.141,0.488
-0.248,-0.296,0.949,3.784,-5.920,1.404
-0.240,-0.293,0.925,-1.587,-4.578,0.183
-0.250,-0.286,0.906,5.310,-5.249,2.625
-0.255,-0.294,0.933,6.653,-10.010,0.610
-0.228,-0.282,0.914,1.892,-6.836,-2.075
-0.257,-0.290,0.882,10.742,-11.902,0.061
-0.263,-0.288,0.932,11.230,-10.742,0.366
-0.266,-0.286,0.895,8.545,-12.939,1.160
-0.297,-0.292,0.902,14.526,-14.771,-1.160
-0.318,-0.307,0.960,15.991,-18.860,-1.221
-0.312,-0.333,1.027,11.597,-14.526,-0.916
-0.423,-0.379,1.135,19.043,-9.338,11.475
-0.510,-0.390,1.294,25.696,25.146,15.930
-0.609,-0.391,1.481,-3.967,91.431,22.217
-0.382,-0.402,1.505,-33.752,189.087,20.203
-0.159,-0.472,1.567,-6.104,192.627,6.165
-0.033,-0.521,1.450,-39.063,170.227,-9.583
0.076,-0.525,1.305,-85.449,93.262,-7.874
0.125,-0.479,1.210,-132.080,35.645,3.357
0.144,-0.428,1.158,-154.419,46.265,18.250
0.147,-0.346,1.053,-167.480,69.702,31.311
0.178,-0.252,0.953,-171.570,66.223,43.030
0.208,-0.161,0.810,-191.528,36.438,36.011
0.167,-0.068,0.627,-205.627,30.640,23.804
0.220,0.037,0.426,-183.716,47.302,22.400
0.193,0.182,0.214,-159.119,71.533,29.968
0.174,0.257,0.002,-145.386,67.017,33.386
0.136,0.337,-0.111,-95.764,41.809,27.039
0.143,0.383,-0.223,-25.269,33.691,8.362
0.166,0.350,-0.297,38.757,21.912,-8.484
0.136,0.277,-0.158,118.835,-12.512,-11.841
0.014,0.148,0.129,216.553,-42.908,-35.034
0.076,-0.069,0.294,248.413,-48.340,-67.200
0.212,-0.337,0.530,299.500,-58.777,-75.317
0.269,-0.562,0.818,303.772,-67.627,-64.392
0.266,-0.728,0.930,295.105,-64.392,-47.729
0.092,-0.805,1.176,281.250,-57.251,-34.485
0.177,-0.837,1.358,245.728,-64.270,-37.476
0.234,-0.924,1.536,199.219,-121.216,-22.705
-0.359,-1.005,1.600,141.296,-291.504,-7.324
-0.391,-1.039,1.751,79.102,-26.489,14.465
-0.347,-1.060,1.836,49.866,23.499,-8.789
-0.322,-1.093,1.975,-29.358,92.712,-5.859
0.101,-1.180,2.060,-87.219,132.324,14.160
0.036,-1.148,1.756,-153.809,59.937,14.160
-0.044,-1.032,1.482,-227.295,41.992,24.414
0.007,-0.997,1.245,-287.109,73.914,32.043
0.087,-0.880,0.981,-333.557,117.432,43.762
0.156,-0.663,0.611,-354.614,126.709,63.049
0.144,-0.479,0.402,-294.128,124.207,109.314
0.216,-0.302,0.266,-222.168,119.507,134.033
0.236,-0.018,-0.048,-234.619,61.829,91.858
0.214,0.217,-0.332,-215.576,30.945,81.299
0.232,0.454,-0.493,-158.081,27.100,49.438
0.168,0.634,-0.507,-66.772,9.277,32.043
0.153,0.618,-0.423,0.854,-4.700,21.851
0.096,0.555,-0.332,71.533,-31.982,8.301
0.047,0.462,-0.175,160.461,-27.222,-20.447
-0.005,0.136,0.082,265.381,-38.208,-62.073
0.207,-0.293,0.453,350.159,-42.786,-120.728
0.447,-0.718,0.945,399.780,-27.405,-124.817
0.642,-0.827,1.393,374.451,-24.841,-101.318
0.437,-0.832,1.611,303.772,-38.513,-35.278
0.302,-0.875,1.559,222.595,-35.522,-29.724
0.304,-0.768,1.519,176.453,-93.811,-43.701
0.054,-0.802,1.499,122.864,-227.661,-24.414
-0.265,-0.832,1.673,44.373,-51.514,-20.020
-0.168,-0.906,1.659,9.033,24.841,-1.465
-0.048,-0.839,1.774,-44.128,36.072,-6.409
0.061,-0.929,1.842,-133.057,-24.597,20.508
-0.050,-0.875,1.461,-205.749,1.038,-7.751
0.003,-0.772,1.262,-248.474,31.982,-7.446
0.160,-0.686,1.118,-272.705,68.787,13.855
0.169,-0.552,0.787,-267.944,71.167,54.321
0.152,-0.405,0.595,-215.149,95.276,65.613
0.347,-0.313,0.896,-257.141,99.426,67.993
0.227,-0.076,0.475,-287.598,87.585,80.017
0.200,0.160,0.172,-261.780,70.313,85.876
0.203,0.381,0.066,-230.408,57.373,57.312
0.233,0.537,-0.058,-176.453,33.569,36.438
0.182,0.710,-0.150,-120.972,33.386,24.780
0.158,0.729,-0.251,-28.320,57.068,19.897
0.123,0.784,-0.205,62.805,64.819,-1.526
0.069,0.690,-0.112,169.128,56.824,-25.513
-0.010,0.403,0.261,243.591,16.479,-81.787
0.257,0.165,0.486,269.348,32.349,-157.227
0.512,-0.009,0.789,263.306,85.327,-140.320
0.658,-0.249,0.892,222.961,101.624,-125.366
0.625,-0.230,1.005,186.401,85.571,-129.944
0.664,-0.246,0.944,149.475,60.303,-141.602
0.580,-0.296,0.746,130.920,37.964,-127.380
0.814,-0.775,0.895,134.949,28.564,-120.972
0.866,-0.594,1.195,196.106,-132.812,-90.088
0.486,-0.568,0.836,29.968,109.558,-10.864
0.557,-0.512,0.619,10.864,155.945,4.211
0.786,-0.592,0.650,13.794,156.555,-16.296
1.011,-0.568,0.677,37.781,118.774,24.902
0.788,-0.520,0.600,-7.568,161.011,25.269
1.043,-0.399,0.342,-35.339,154.297,5.615
1.032,-0.363,0.375,-15.320,59.448,12.024
1.017,-0.426,0.393,-4.333,-15.442,10.559
0.977,-0.463,0.415,7.141,18.677,12.390
0.919,-0.440,0.396,9.399,30.518,1.770
0.946,-0.401,0.380,-1.221,8.850,10.315
0.887,-0.359,0.334,-0.793,15.076,22.339
0.842,-0.337,0.224,3.174,11.292,17.578
0.859,-0.358,0.259,13.184,1.587,5.798
0.922,-0.376,0.354,20.386,7.202,-0.732
0.863,-0.350,0.282,9.155,22.400,13.428
0.867,-0.348,0.251,13.184,12.390,9.460
0.918,-0.366,0.292,20.569,11.414,1.404
0.894,-0.348,0.298,12.390,24.536,8.606
0.877,-0.344,0.250,0.488,14.160,6.287
0.941,-0.373,0.243,0.549,0.854,-2.380
0.944,-0.378,0.285,8.179,2.014,-1.526
0.891,-0.363,0.282,5.493,6.104,4.456
0.896,-0.344,0.227,-0.183,1.587,0.061
0.922,-0.371,0.240,7.629,-4.883,-2.563
0.913,-0.368,0.257,14.343,-0.549,0.793
0.876,-0.361,0.248,7.263,2.380,1.709

0.623,-0.277,-0.030,2.869,-83.740,-85.266
0.528,-0.474,0.072,40.466,-179.565,-104.553
0.944,-0.923,0.755,144.165,-140.015,-132.751
0.998,-0.913,0.721,90.759,-40.894,-118.164
0.769,-0.958,0.604,58.167,-98.450,-56.213
0.769,-1.058,0.750,60.364,-143.860,-32.776
1.047,-1.290,1.151,2.563,-124.268,-14.221
0.869,-1.308,1.240,-108.215,-78.491,44.861
0.620,-1.245,1.065,-200.928,-46.936,80.078
0.605,-1.045,1.019,-260.986,-43.884,107.117
0.597,-0.857,0.918,-328.491,-33.386,139.465
0.612,-0.786,0.757,-364.197,-25.330,169.495
0.457,-0.523,0.526,-368.835,1.465,184.082
0.325,-0.345,0.223,-369.751,27.527,209.351
0.234,-0.076,-0.061,-321.167,-12.756,206.116
0.103,0.193,-0.210,-223.633,-63.110,164.673
-0.016,0.459,-0.483,-193.481,-48.767,129.211
-0.085,0.599,-0.543,-106.750,-81.543,87.402
-0.162,0.764,-0.560,-7.263,-73.486,57.983
-0.130,0.654,-0.401,108.582,-69.092,16.235
-0.092,0.409,-0.080,223.755,-72.205,-35.278
-0.019,0.149,0.147,289.856,-62.622,-95.093
0.155,-0.258,0.670,353.760,-64.697,-106.445
0.311,-0.334,1.103,353.149,-30.945,-83.130
0.258,-0.528,0.908,273.254,-8.972,-31.006
0.379,-0.742,1.140,236.389,-82.397,-46.204
0.012,-0.614,1.459,255.188,-134.094,-5.554
-0.016,-0.574,1.507,185.547,-63.965,6.165
-0.030,-0.758,1.115,124.023,-282.959,22.949
-0.474,-0.775,1.520,74.280,-192.017,19.714
-0.384,-0.823,1.628,59.326,-25.024,37.720
-0.486,-0.774,1.496,61.707,37.842,15.991
-0.559,-0.783,1.719,-1.587,69.153,-23.010
-0.512,-0.934,2.127,-80.139,97.839,-17.761
-0.224,-0.979,2.089,-164.001,113.159,-18.005
-0.154,-0.956,1.538,-259.277,122.375,-6.958
-0.100,-0.867,1.129,-301.208,149.963,4.761
0.120,-0.697,0.903,-305.908,182.129,35.339
0.233,-0.476,0.632,-306.641,182.556,62.927
0.234,-0.210,0.339,-301.636,150.024,83.130
0.248,0.091,0.135,-282.349,62.378,67.932
0.311,0.268,0.027,-239.380,10.620,48.401
0.341,0.390,-0.227,-167.358,4.700,33.691
0.298,0.577,-0.449,-76.721,3.540,26.428
0.168,0.661,-0.446,13.611,-17.273,34.851
0.062,0.574,-0.289,101.929,-22.766,28.992
0.002,0.390,-0.049,191.345,-32.349,5.005
-0.014,0.101,0.165,285.095,-55.176,-25.757
0.201,-0.304,0.682,353.821,-43.274,-24.292
0.161,-0.403,1.368,334.412,-1.587,8.667
0.387,-0.415,1.190,233.582,41.199,-41.748
0.337,-0.439,1.003,199.036,15.259,-39.368
0.363,-0.504,1.165,191.589,-28.687,-26.245
0.320,-0.541,1.279,178.406,-52.002,10.498
0.225,-0.557,1.236,170.349,-228.699,13.733
-0.085,-0.595,1.202,114.380,-95.093,15.137
-0.060,-0.688,1.315,91.980,-18.555,-1.221
-0.088,-0.742,1.456,47.485,-7.019,7.141
-0.175,-0.826,1.670,-4.517,21.667,6.165
-0.057,-0.877,1.766,-59.143,43.396,-8.606
-0.016,-0.868,1.686,-110.229,45.410,-9.277
0.022,-0.863,1.614,-169.067,37.231,-5.493
0.117,-0.824,1.412,-222.107,50.720,0.610
0.140,-0.729,1.236,-255.310,64.941,7.141
0.193,-0.642,1.158,-294.434,74.341,7.690
0.272,-0.474,0.752,-311.646,68.237,14.832
0.290,-0.200,0.294,-286.072,50.049,20.569
0.295,0.119,0.101,-223.999,30.151,9.705
0.283,0.304,0.219,-186.584,25.208,9.338
0.419,0.321,0.288,-164.185,31.433,-5.981
0.427,0.414,0.106,-165.161,60.364,-1.831
0.358,0.565,0.011,-112.488,46.814,16.235
0.270,0.634,0.225,-16.418,26.794,16.357
0.325,0.565,0.462,33.691,59.631,0.916
0.478,0.517,0.534,57.861,69.092,6.836
0.323,0.619,0.669,54.016,118.042,-4.883
0.266,0.488,0.379,81.238,16.602,31.128
0.298,0.561,0.263,71.899,181.030,-33.508
0.218,0.475,0.161,131.958,34.912,-69.336
0.222,0.380,-0.193,163.696,-61.951,-123.413
0.318,0.263,-0.329,231.873,-171.020,-142.822
0.228,-0.092,-0.094,289.734,-235.229,-103.149
0.188,-0.571,0.195,352.234,-284.058,-59.204
0.083,-0.943,0.972,371.887,-279.663,-21.057
-0.322,-1.044,1.384,298.462,-195.251,14.832
-0.421,-1.070,1.639,165.955,-100.159,-6.165
-0.313,-1.141,1.865,134.460,-101.074,6.775
-0.493,-1.045,2.006,81.116,-81.238,22.766
-0.817,-1.076,1.866,22.095,-42.786,-13.062
-0.757,-1.099,2.147,-22.949,15.076,-53.040
-0.557,-1.048,1.829,-101.501,89.355,-48.096
-0.521,-1.018,1.619,-182.007,113.953,-51.331
-0.425,-1.007,1.426,-249.756,98.572,-76.233
-0.186,-0.962,1.232,-309.631,71.106,-87.708
0.045,-0.784,0.839,-331.238,100.952,-40.100
0.007,-0.535,0.466,-314.758,202.515,-13.123
0.118,-0.303,0.329,-287.842,236.023,-24.658
0.365,-0.139,0.233,-251.953,214.416,-24.292
0.513,0.013,0.007,-213.196,180.603,-0.732
0.490,0.242,-0.293,-158.142,120.178,14.832
0.449,0.413,-0.381,-99.487,74.463,21.484
0.422,0.566,-0.473,-13.123,42.236,26.733
0.333,0.610,-0.401,87.524,-30.640,21.851
0.296,0.475,-0.150,189.453,-130.737,3.723
0.222,0.281,0.008,284.790,-188.538,-13.977
0.167,-0.158,0.171,364.990,-226.074,-12.756
0.185,-0.618,0.633,433.044,-285.339,0.305
-0.227,-0.690,1.081,421.020,-295.410,35.156
-0.431,-0.828,1.129,379.639,-243.469,52.246
-0.444,-0.981,1.411,269.714,-126.404,39.612
-0.487,-0.999,1.483,191.406,-73.242,66.772
-0.607,-0.961,1.458,125.854,4.395,57.678
-0.607,-0.992,1.313,46.204,50.537,20.447
-0.549,-1.090,1.625,-12.085,42.786,3.662
-0.390,-0.967,1.593,-82.886,80.444,-7.141
-0.461,-0.952,1.367,-129.211,79.041,-8.240
-0.354,-0.863,1.422,-171.204,121.887,-21.912
-0.036,-0.666,1.249,-246.826,192.749,-37.170
0.119,-0.658,0.950,-289.307,153.748,-40.100
0.318,-0.424,0.512,-316.467,74.768,-46.631
0.445,-0.210,0.227,-269.958,29.541,-30.945
0.423,-0.079,0.157,-175.232,56.396,13.977
0.428,0.178,0.126,-91.919,85.022,19.775
0.360,0.327,0.165,-19.226,55.176,10.437
0.197,0.355,0.307,50.415,-15.320,-3.174

0.095,-0.334,0.947,7.080,-5.554,-0.061
0.107,-0.348,0.965,4.272,-5.310,2.014
0.083,-0.336,0.925,6.104,-3.662,3.113
0.081,-0.333,0.941,6.836,-0.610,0.732
0.083,-0.333,0.950,6.653,-2.319,1.160
0.092,-0.341,0.934,7.874,-4.700,0.366
0.086,-0.358,0.964,7.019,-5.310,-0.610
0.095,-0.348,0.937,5.066,-3.540,1.465
0.076,-0.353,0.916,7.324,-5.554,0.916
0.065,-0.345,0.911,13.245,-6.775,0.244
0.052,-0.339,0.872,22.095,-3.662,-1.465
0.059,-0.367,0.897,34.241,0.305,-7.141
0.129,-0.423,1.030,37.476,12.695,-17.151
0.068,-0.581,1.292,25.696,26.367,-8.118
-0.034,-0.792,1.728,-5.005,56.885,28.564
0.112,-0.737,1.806,-79.041,112.122,39.978
0.067,-0.636,1.556,-175.354,102.295,30.701
0.087,-0.568,1.369,-231.567,71.777,5.554
0.234,-0.446,1.214,-289.307,75.684,-2.380
0.353,-0.319,0.741,-322.449,88.928,30.396
0.356,-0.111,0.443,-300.842,99.060,57.556
0.331,0.019,0.319,-277.161,118.408,65.857
0.326,0.193,0.097,-252.930,128.906,44.006
0.379,0.335,-0.217,-192.444,103.577,22.400
0.350,0.455,-0.490,-99.487,58.533,4.456
0.312,0.613,-0.703,14.343,15.198,-6.165
0.251,0.608,-0.476,182.312,-71.106,-17.883
0.240,0.346,-0.195,310.242,-145.325,-41.382
0.177,0.074,0.021,385.254,-184.692,-53.650
0.073,-0.329,0.088,443.298,-253.052,-67.566
0.092,-0.820,0.406,482.361,-307.861,-33.813
0.174,-1.119,0.969,505.615,-301.941,61.035
-0.044,-1.311,1.309,503.235,-245.300,101.624
-0.312,-1.348,1.134,332.275,-41.870,94.360
-0.348,-1.385,1.163,196.533,-2.258,67.627
-0.406,-1.465,1.167,104.004,9.216,42.603
-0.539,-1.594,1.233,49.255,0.916,11.475
-0.612,-1.674,1.533,6.714,-8.484,-10.254
-0.476,-1.572,1.664,-81.665,83.984,-25.574
-0.398,-1.474,1.451,-244.141,183.533,-12.085
-0.110,-1.369,1.328,-344.788,170.288,-5.493
-0.027,-1.209,1.028,-454.285,169.128,-15.442
-0.008,-0.969,0.562,-492.676,142.395,-22.217
0.075,-0.620,0.419,-481.079,102.905,-4.944
0.322,-0.360,0.329,-425.842,146.179,7.202
0.382,-0.061,0.138,-345.093,187.134,35.095
0.384,0.218,-0.085,-279.236,153.198,41.443
0.499,0.311,-0.241,-215.637,97.656,16.052
0.553,0.440,-0.271,-120.361,50.171,11.658
0.427,0.526,-0.232,-38.269,2.319,16.907
0.432,0.539,-0.237,29.419,1.282,-14.099
0.441,0.525,-0.289,121.094,-25.757,-34.851
0.400,0.466,-0.239,223.511,-80.750,-68.054
0.347,0.189,-0.049,320.190,-130.310,-88.257
0.366,-0.100,0.083,387.817,-113.586,-102.478
0.356,-0.252,0.093,410.278,-163.025,-83.435
0.312,-0.684,0.376,372.375,-243.591,-17.090
0.214,-0.924,0.753,373.352,-316.162,95.459
-0.073,-1.303,0.938,429.810,-291.199,171.265
-0.380,-1.342,1.015,447.144,-261.902,152.344
-0.350,-1.407,1.381,291.321,-75.928,45.105
-0.376,-1.598,1.489,141.479,2.625,42.664
-0.452,-1.700,1.458,32.043,39.124,37.415
-0.496,-1.662,1.651,-35.217,65.674,22.217
-0.467,-1.543,1.645,-138.794,140.137,-10.986
-0.098,-1.435,1.522,-257.446,174.011,-26.550
0.049,-1.283,1.233,-353.394,165.100,-57.861
0.057,-1.164,1.072,-408.081,100.464,-52.612
0.158,-1.077,0.857,-456.055,40.833,-47.607
0.319,-0.808,0.712,-476.074,4.150,-28.625
0.387,-0.580,0.419,-480.530,92.346,8.057
0.306,-0.234,-0.031,-421.570,203.918,54.626
0.353,0.131,-0.349,-314.026,202.942,43.579
0.394,0.352,-0.394,-213.867,161.499,10.071
0.395,0.515,-0.450,-115.234,74.646,-7.324
0.339,0.549,-0.511,-28.198,15.442,-6.592
0.336,0.601,-0.687,75.989,-12.024,-2.625
0.331,0.550,-0.579,214.722,-53.040,-15.259
0.276,0.306,-0.245,352.966,-127.808,-38.879
0.258,-0.016,-0.022,425.232,-157.288,-66.223
0.179,-0.352,0.141,479.065,-186.035,-56.580
0.266,-0.939,0.610,462.524,-235.840,-15.381
0.132,-0.914,1.032,478.149,-249.329,49.011
-0.196,-1.176,0.926,467.102,-193.604,51.086
-0.254,-1.437,1.157,362.915,-124.939,29.846
-0.152,-1.507,1.793,179.077,-0.366,33.325
-0.229,-1.482,1.352,25.574,67.932,41.382
-0.372,-1.447,1.230,-6.531,53.833,24.841
-0.316,-1.435,1.493,-29.846,73.853,-0.366
-0.039,-1.406,1.673,-82.642,103.333,-20.935
0.171,-1.409,1.618,-210.815,102.600,-6.348
0.151,-1.333,1.432,-357.971,125.061,6.653
0.270,-1.341,1.249,-440.369,61.829,30.640
0.245,-1.055,0.747,-501.404,10.559,44.617
0.290,-0.755,0.530,-480.225,-45.349,77.087
0.249,-0.420,0.402,-450.684,63.599,84.900
0.141,-0.074,-0.028,-434.814,182.983,82.642
0.157,0.333,-0.209,-348.938,161.377,52.124
0.072,0.484,-0.318,-255.798,111.511,46.692
0.025,0.692,-0.508,-152.405,83.252,27.527
-0.007,0.748,-0.560,-33.569,67.688,5.310
